temperature,gyroscopeX,gyroscopeY,gyroscopeZ,accelerometerX,accelerometerY,accelerometerZ,magnetometerX,magnetometerY,magnetometerZ,vcc,uptime,time
18.430138,-0.16021729,-0.09155273,-0.03814697,-0.00012207,-0.02026367,1.02160645,49.03472137,352.59082031,333.98901367,2,34502575,1487057267
18.430138,-0.04577637,0.03051758,0.01525879,0.00036621,-0.02087402,1.01953125,49.03472137,352.59082031,333.98901367,2,34502607,1487057267
18.445114,-0.03051758,-0.01525879,0.08392334,-0.00097656,-0.02087402,1.01867676,49.03472137,352.59082031,333.98901367,2,34502637,1487057267
18.424147,-0.09918213,-0.00762939,-0.02288818,0.00000000,-0.02093506,1.02514648,56.03968430,352.59082031,344.10989380,2,34502666,1487057267
18.442118,0.00000000,-0.09918213,0.05340576,-0.00036621,-0.02154541,1.02374268,56.03968430,352.59082031,344.10989380,2,34502695,1487057267
18.418158,0.01525879,0.01525879,0.03814697,0.00128174,-0.02050781,1.02227783,56.03968430,352.59082031,344.10989380,2,34502722,1487057267
18.418158,-0.06866455,-0.06866455,0.03814697,-0.00042725,-0.01953125,1.01953125,56.03968430,352.59082031,344.10989380,2,34502753,1487057267
18.427143,-0.07629395,-0.05340576,-0.07629395,-0.00024414,-0.02185059,1.02166748,61.29340363,347.30194092,349.17031860,2,34502782,1487057267
18.439123,-0.08392334,0.03051758,-0.03814697,0.00006104,-0.02288818,1.02069092,61.29340363,347.30194092,349.17031860,2,34502811,1487057267
18.421152,-0.08392334,-0.02288818,-0.04577637,0.00097656,-0.02270508,1.02008057,61.29340363,347.30194092,349.17031860,2,34502840,1487057267
18.421152,-0.06103516,-0.02288818,-0.02288818,-0.00067139,-0.02056885,1.01910400,61.29340363,347.30194092,349.17031860,2,34502874,1487057267
18.439123,-0.06103516,-0.06866455,0.01525879,-0.00201416,-0.01940918,1.02038574,61.29340363,347.30194092,349.17031860,2,34502903,1487057267
18.436129,-0.12207031,-0.03051758,-0.06866455,-0.00122070,-0.02227783,1.02227783,63.04464340,380.79806519,347.48352051,2,34502973,1487057267
18.442118,0.00000000,-0.05340576,0.05340576,0.00091553,-0.02130127,1.02337646,52.53720474,345.53900146,354.23077393,2,34503041,1487057268
18.433132,0.01525879,-0.07629395,0.01525879,-0.00244141,-0.01898193,1.02301025,52.53720474,345.53900146,354.23077393,2,34503071,1487057268
18.433132,0.03814697,-0.00762939,0.06866455,0.00000000,-0.02093506,1.01818848,52.53720474,345.53900146,354.23077393,2,34503106,1487057268
18.439123,-0.03051758,0.00762939,-0.09155273,-0.00134277,-0.02154541,1.02160645,52.53720474,345.53900146,354.23077393,2,34503135,1487057268
18.445114,-0.05340576,-0.06103516,0.03814697,-0.00097656,-0.02197266,1.02276611,63.04464340,352.59082031,347.48352051,2,34503167,1487057268
18.439123,-0.06103516,0.00762939,-0.02288818,0.00048828,-0.02203369,1.02062988,63.04464340,352.59082031,347.48352051,2,34503197,1487057268
18.445114,-0.11444092,-0.02288818,0.03051758,-0.00201416,-0.02148438,1.01782227,63.04464340,352.59082031,347.48352051,2,34503226,1487057268
18.415161,-0.16021729,-0.01525879,0.02288818,-0.00128174,-0.02130127,1.02239990,63.04464340,352.59082031,347.48352051,2,34503256,1487057268
18.439123,-0.06103516,0.00762939,0.00762939,0.00048828,-0.02404785,1.02166748,57.79092407,340.25012207,335.67581177,2,34503286,1487057268
18.445114,-0.06866455,-0.06866455,0.03814697,-0.00201416,-0.02215576,1.02075195,57.79092407,340.25012207,335.67581177,2,34503316,1487057268
18.427143,-0.02288818,-0.05340576,0.01525879,-0.00097656,-0.02056885,1.02020264,57.79092407,340.25012207,335.67581177,2,34503345,1487057268
18.445114,-0.12969971,-0.06103516,-0.07629395,-0.00097656,-0.02142334,1.02020264,57.79092407,340.25012207,335.67581177,2,34503378,1487057268
18.430138,-0.02288818,-0.03051758,-0.06866455,-0.00164795,-0.02252197,1.02301025,61.29340363,357.87966919,345.79669189,2,34503410,1487057268
18.439123,-0.03051758,0.03051758,-0.07629395,0.00018311,-0.02056885,1.02069092,61.29340363,357.87966919,345.79669189,2,34503442,1487057268
18.430138,-0.01525879,-0.12969971,0.00000000,-0.00091553,-0.02258301,1.01879883,61.29340363,357.87966919,345.79669189,2,34503480,1487057268
18.436129,-0.12207031,-0.01525879,-0.02288818,0.00006104,-0.02020264,1.02148438,61.29340363,357.87966919,345.79669189,2,34503511,1487057268
18.442118,-0.09155273,-0.06866455,0.00000000,0.00061035,-0.02008057,1.02288818,63.04464340,363.16854858,347.48352051,2,34503540,1487057268
18.454100,-0.07629395,0.00000000,0.07629395,-0.00183105,-0.02282715,1.02197266,63.04464340,363.16854858,347.48352051,2,34503571,1487057268
18.418158,-0.10681152,-0.01525879,0.06103516,-0.00170898,-0.01995850,1.02209473,63.04464340,363.16854858,347.48352051,2,34503602,1487057268
18.442118,-0.03051758,-0.08392334,0.02288818,-0.00134277,-0.01977539,1.02160645,63.04464340,363.16854858,347.48352051,2,34503631,1487057268
18.433132,-0.07629395,-0.03051758,-0.08392334,-0.00048828,-0.02087402,1.02227783,59.54216385,363.16854858,350.85714722,2,34503660,1487057268
18.463085,-0.09918213,-0.03814697,-0.00762939,-0.00103760,-0.02130127,1.02178955,59.54216385,363.16854858,350.85714722,2,34503690,1487057268
18.436129,0.03814697,-0.02288818,-0.03814697,0.00042725,-0.02081299,1.02258301,59.54216385,363.16854858,350.85714722,2,34503719,1487057268
18.436129,0.02288818,-0.02288818,0.00000000,-0.00170898,-0.02185059,1.02331543,59.54216385,363.16854858,350.85714722,2,34503749,1487057268
18.418158,-0.10681152,0.01525879,-0.06103516,-0.00097656,-0.02111816,1.02209473,49.03472137,352.59082031,350.85714722,2,34503782,1487057268
18.433132,-0.03814697,0.00000000,0.03051758,-0.00024414,-0.02111816,1.02331543,49.03472137,352.59082031,350.85714722,2,34503812,1487057268
18.439123,-0.03051758,-0.03814697,-0.05340576,0.00006104,-0.02221680,1.02349854,49.03472137,352.59082031,350.85714722,2,34503841,1487057268
18.427143,-0.06866455,0.07629395,-0.09918213,-0.00054932,-0.02197266,1.01940918,49.03472137,352.59082031,350.85714722,2,34503870,1487057268
18.436129,0.01525879,-0.04577637,0.05340576,-0.00256348,-0.01959229,1.02233887,49.03472137,352.59082031,350.85714722,2,34503899,1487057268
18.451103,0.00000000,0.02288818,-0.03051758,0.00164795,-0.01959229,1.02117920,56.03968430,363.16854858,340.73626709,2,34503928,1487057268
18.427143,-0.06103516,-0.03814697,0.06103516,-0.00299072,-0.02172852,1.02374268,56.03968430,363.16854858,340.73626709,2,34503958,1487057268
18.436129,0.01525879,0.03051758,-0.05340576,-0.00140381,-0.02246094,1.02331543,56.03968430,363.16854858,340.73626709,2,34503992,1487057268
18.433132,0.00762939,-0.06866455,0.00762939,-0.00207520,-0.02233887,1.01812744,56.03968430,363.16854858,340.73626709,2,34504023,1487057269
18.433132,-0.09155273,0.00000000,0.00000000,-0.00146484,-0.02191162,1.02008057,56.03968430,349.06491089,347.48352051,2,34504052,1487057269
18.445114,-0.07629395,-0.09155273,0.04577637,-0.00189209,-0.01910400,1.02227783,56.03968430,349.06491089,347.48352051,2,34504083,1487057269
18.433132,-0.02288818,0.00000000,-0.05340576,0.00042725,-0.02233887,1.02160645,56.03968430,349.06491089,347.48352051,2,34504112,1487057269
18.439123,-0.09155273,-0.01525879,-0.04577637,-0.00134277,-0.02166748,1.01696777,56.03968430,349.06491089,347.48352051,2,34504145,1487057269
18.430138,-0.12969971,0.04577637,-0.02288818,-0.00018311,-0.02008057,1.02270508,54.28844452,350.82785034,349.17031860,2,34504174,1487057269
18.436129,-0.09155273,0.03814697,-0.02288818,-0.00207520,-0.02233887,1.01684570,54.28844452,350.82785034,349.17031860,2,34504205,1487057269
18.436129,-0.10681152,-0.00762939,0.00000000,-0.00103760,-0.01831055,1.02166748,54.28844452,350.82785034,349.17031860,2,34504234,1487057269
18.442118,0.03051758,0.02288818,-0.03814697,-0.00024414,-0.02032471,1.02221680,54.28844452,350.82785034,349.17031860,2,34504268,1487057269
18.433132,0.02288818,0.03814697,-0.09155273,-0.00146484,-0.02294922,1.02209473,47.28348160,364.93148804,342.42306519,2,34504299,1487057269
18.445114,-0.01525879,0.02288818,0.00762939,-0.00079346,-0.02264404,1.01892090,47.28348160,364.93148804,342.42306519,2,34504330,1487057269
18.424147,-0.08392334,-0.01525879,0.00000000,-0.00018311,-0.02160645,1.01867676,47.28348160,364.93148804,342.42306519,2,34504359,1487057269
18.424147,-0.16021729,-0.02288818,0.08392334,-0.00146484,-0.02276611,1.02221680,47.28348160,364.93148804,342.42306519,2,34504388,1487057269
18.412167,-0.00762939,0.03814697,-0.02288818,0.00073242,-0.02130127,1.02191162,52.53720474,366.69445801,350.85714722,2,34504419,1487057269
18.442118,-0.09155273,-0.08392334,-0.03051758,0.00061035,-0.02178955,1.02209473,52.53720474,366.69445801,350.85714722,2,34504465,1487057269
18.445114,-0.09155273,0.05340576,-0.05340576,-0.00042725,-0.02130127,1.02233887,52.53720474,366.69445801,350.85714722,2,34504498,1487057269
18.442118,-0.05340576,0.01525879,-0.03051758,-0.00207520,-0.02069092,1.01934814,43.78100204,347.30194092,355.91757202,2,34504527,1487057269
18.436129,0.00762939,0.00000000,-0.05340576,-0.00152588,-0.02215576,1.01995850,43.78100204,347.30194092,355.91757202,2,34504557,1487057269
18.430138,-0.03051758,-0.01525879,0.02288818,-0.00170898,-0.02136230,1.02215576,43.78100204,347.30194092,355.91757202,2,34504586,1487057269
18.442118,-0.09155273,-0.03814697,-0.07629395,-0.00317383,-0.02001953,1.02307129,43.78100204,347.30194092,355.91757202,2,34504615,1487057269
18.424147,-0.06866455,0.02288818,0.00762939,-0.00073242,-0.02276611,1.01641846,43.78100204,347.30194092,355.91757202,2,34504644,1487057269
18.454100,-0.09155273,0.01525879,0.03814697,-0.00225830,-0.02075195,1.01751709,63.04464340,370.22036743,340.73626709,2,34504675,1487057269
18.460089,0.12207031,-0.00762939,-0.05340576,-0.00097656,-0.02166748,1.01940918,63.04464340,370.22036743,340.73626709,2,34504708,1487057269
18.436129,-0.00762939,-0.09918213,-0.06866455,-0.00213623,-0.02160645,1.01629639,63.04464340,370.22036743,340.73626709,2,34504739,1487057269
18.436129,-0.06103516,-0.06866455,-0.00762939,0.00048828,-0.01983643,1.02056885,63.04464340,370.22036743,340.73626709,2,34504768,1487057269
18.433132,-0.03814697,-0.01525879,0.03051758,-0.00079346,-0.01953125,1.02105713,56.03968430,366.69445801,347.48352051,2,34504797,1487057269
18.439123,-0.04577637,-0.06103516,-0.06103516,-0.00024414,-0.02172852,1.02172852,56.03968430,366.69445801,347.48352051,2,34504829,1487057269
18.424147,-0.02288818,0.01525879,-0.01525879,-0.00042725,-0.02136230,1.02197266,56.03968430,366.69445801,347.48352051,2,34504859,1487057269
18.448109,-0.04577637,-0.01525879,-0.01525879,-0.00280762,-0.02111816,1.02264404,56.03968430,366.69445801,347.48352051,2,34504895,1487057269
18.460089,0.04577637,-0.02288818,-0.03814697,-0.00115967,-0.02337646,1.02136230,54.28844452,343.77603149,345.79669189,2,34504927,1487057269
18.451103,-0.06103516,-0.06103516,-0.12207031,-0.00476074,-0.02099609,1.01916504,54.28844452,343.77603149,345.79669189,2,34504962,1487057269
18.454100,-0.04577637,-0.03051758,0.00000000,0.00054932,-0.02105713,1.02386475,54.28844452,343.77603149,345.79669189,2,34504991,1487057269
18.439123,-0.02288818,-0.06103516,0.00000000,0.00109863,-0.02124023,1.02178955,73.55208588,366.69445801,344.10989380,2,34505030,1487057270
18.433132,0.06866455,0.09918213,0.10681152,0.00000000,-0.02404785,1.02178955,73.55208588,366.69445801,344.10989380,2,34505085,1487057270
18.442118,-0.05340576,-0.02288818,-0.01525879,-0.00158691,-0.02087402,1.02093506,73.55208588,366.69445801,344.10989380,2,34505114,1487057270
18.427143,-0.10681152,-0.04577637,0.03051758,-0.00189209,-0.02191162,1.01989746,54.28844452,368.45739746,342.42306519,2,34505145,1487057270
18.445114,-0.03814697,-0.00762939,-0.01525879,-0.00158691,-0.02142334,1.02270508,54.28844452,368.45739746,342.42306519,2,34505176,1487057270
18.448109,-0.09918213,-0.00762939,0.00000000,-0.00122070,-0.02111816,1.01947021,54.28844452,368.45739746,342.42306519,2,34505205,1487057270
18.430138,0.00762939,-0.02288818,-0.07629395,-0.00018311,-0.02111816,1.01702881,54.28844452,368.45739746,342.42306519,2,34505235,1487057270
18.430138,0.00762939,0.01525879,-0.11444092,0.00048828,-0.02111816,1.02087402,54.28844452,368.45739746,342.42306519,2,34505264,1487057270
18.424147,-0.03814697,0.01525879,0.00762939,-0.00213623,-0.02233887,1.01916504,54.28844452,357.87966919,349.17031860,2,34505293,1487057270
18.442118,-0.05340576,-0.02288818,0.11444092,-0.00134277,-0.02111816,1.02105713,54.28844452,357.87966919,349.17031860,2,34505327,1487057270
18.445114,-0.02288818,-0.03814697,-0.09155273,-0.00109863,-0.02148438,1.02191162,54.28844452,357.87966919,349.17031860,2,34505358,1487057270
18.421152,-0.03814697,0.11444092,0.00000000,-0.00018311,-0.02014160,1.02307129,54.28844452,357.87966919,349.17031860,2,34505390,1487057270
18.427143,-0.12969971,-0.04577637,-0.09918213,-0.00207520,-0.01977539,1.01940918,52.53720474,359.64263916,344.10989380,2,34505428,1487057270
18.454100,-0.08392334,0.00762939,-0.09155273,-0.00134277,-0.02038574,1.02166748,52.53720474,359.64263916,344.10989380,2,34505464,1487057270
18.412167,-0.11444092,-0.06866455,0.01525879,-0.00091553,-0.02288818,1.01965332,52.53720474,359.64263916,344.10989380,2,34505496,1487057270
18.430138,-0.08392334,-0.06866455,-0.00762939,0.00006104,-0.02203369,1.02398682,47.28348160,361.40557861,359.29119873,2,34505528,1487057270
18.427143,-0.06103516,0.00000000,-0.04577637,-0.00054932,-0.02087402,1.01873779,47.28348160,361.40557861,359.29119873,2,34505559,1487057270
18.433132,-0.03814697,0.00000000,-0.05340576,-0.00317383,-0.01928711,1.01916504,47.28348160,361.40557861,359.29119873,2,34505588,1487057270
18.430138,0.03051758,0.03051758,-0.01525879,-0.00085449,-0.02038574,1.01940918,47.28348160,361.40557861,359.29119873,2,34505617,1487057270
18.418158,-0.08392334,0.09155273,-0.07629395,0.00036621,-0.02008057,1.02191162,54.28844452,354.35375977,345.79669189,2,34505647,1487057270
18.433132,-0.11444092,-0.03814697,-0.07629395,0.00000000,-0.01953125,1.01910400,54.28844452,354.35375977,345.79669189,2,34505679,1487057270
18.412167,-0.06866455,0.01525879,-0.05340576,-0.00152588,-0.02099609,1.02239990,54.28844452,354.35375977,345.79669189,2,34505708,1487057270
18.430138,0.00000000,-0.03814697,-0.03051758,-0.00012207,-0.02148438,1.01788330,54.28844452,354.35375977,345.79669189,2,34505737,1487057270
18.433132,-0.06866455,-0.07629395,0.00000000,-0.00250244,-0.02081299,1.02154541,54.28844452,354.35375977,345.79669189,2,34505766,1487057270
18.463085,-0.09155273,-0.10681152,-0.03814697,0.00012207,-0.02056885,1.02075195,59.54216385,356.11672974,340.73626709,2,34505796,1487057270
18.430138,-0.08392334,-0.03814697,-0.03051758,-0.00091553,-0.02154541,1.01959229,59.54216385,356.11672974,340.73626709,2,34505829,1487057270
18.424147,0.06103516,0.01525879,0.03814697,-0.00134277,-0.02227783,1.02258301,59.54216385,356.11672974,340.73626709,2,34505861,1487057270
18.445114,-0.07629395,-0.03051758,0.06866455,-0.00201416,-0.02215576,1.02062988,59.54216385,356.11672974,340.73626709,2,34505890,1487057270
18.427143,-0.14495850,0.05340576,-0.02288818,-0.00006104,-0.02032471,1.02325439,38.52728271,356.11672974,337.36264038,2,34505919,1487057270
18.436129,-0.02288818,0.06103516,0.03814697,-0.00030518,-0.02166748,1.01751709,38.52728271,356.11672974,337.36264038,2,34505948,1487057270
18.433132,-0.09918213,-0.01525879,-0.04577637,-0.00238037,-0.02178955,1.02069092,38.52728271,356.11672974,337.36264038,2,34505977,1487057270
18.421152,-0.12207031,-0.06866455,-0.01525879,-0.00097656,-0.01989746,1.02154541,38.52728271,356.11672974,337.36264038,2,34506006,1487057270
18.430138,0.03051758,-0.02288818,-0.00762939,-0.00170898,-0.01977539,1.02270508,56.03968430,356.11672974,350.85714722,2,34506040,1487057271
18.442118,-0.12207031,0.02288818,-0.01525879,-0.00048828,-0.02148438,1.02172852,56.03968430,356.11672974,350.85714722,2,34506074,1487057271
18.448109,-0.13732910,-0.01525879,-0.05340576,-0.00164795,-0.02246094,1.02001953,56.03968430,356.11672974,350.85714722,2,34506103,1487057271
18.439123,-0.06866455,0.04577637,-0.00762939,-0.00170898,-0.02276611,1.02026367,56.03968430,356.11672974,350.85714722,2,34506136,1487057271
18.457094,-0.11444092,-0.00762939,-0.03814697,-0.00067139,-0.01928711,1.01892090,59.54216385,352.59082031,344.10989380,2,34506165,1487057271
18.445114,0.01525879,-0.01525879,-0.06866455,-0.00048828,-0.02282715,1.02319336,59.54216385,352.59082031,344.10989380,2,34506197,1487057271
18.433132,-0.00762939,-0.00762939,0.03051758,0.00109863,-0.02209473,1.02325439,59.54216385,352.59082031,344.10989380,2,34506250,1487057271
18.445114,0.04577637,0.02288818,-0.04577637,-0.00054932,-0.02282715,1.02239990,61.29340363,350.82785034,349.17031860,2,34506279,1487057271
18.445114,-0.08392334,0.07629395,-0.01525879,0.00000000,-0.02111816,1.01861572,61.29340363,350.82785034,349.17031860,2,34506309,1487057271
18.427143,-0.11444092,-0.02288818,0.03051758,-0.00274658,-0.02062988,1.02148438,61.29340363,350.82785034,349.17031860,2,34506342,1487057271
18.442118,-0.09155273,-0.03051758,-0.07629395,-0.00195312,-0.02087402,1.01965332,61.29340363,350.82785034,349.17031860,2,34506371,1487057271
18.430138,-0.10681152,-0.05340576,-0.01525879,-0.00134277,-0.01965332,1.01837158,56.03968430,342.01309204,340.73626709,2,34506400,1487057271
18.451103,0.00000000,-0.01525879,-0.08392334,-0.00152588,-0.02252197,1.01831055,56.03968430,342.01309204,340.73626709,2,34506430,1487057271
18.445114,0.00000000,0.00000000,-0.03814697,0.00048828,-0.02142334,1.02056885,56.03968430,342.01309204,340.73626709,2,34506460,1487057271
18.439123,-0.02288818,-0.10681152,-0.00762939,-0.00164795,-0.02258301,1.01556396,56.03968430,342.01309204,340.73626709,2,34506489,1487057271
18.427143,0.03051758,0.01525879,-0.06866455,-0.00146484,-0.02020264,1.02337646,64.79588318,347.30194092,345.79669189,2,34506520,1487057271
18.442118,0.00762939,0.05340576,0.03814697,-0.00292969,-0.02026367,1.02276611,64.79588318,347.30194092,345.79669189,2,34506552,1487057271
18.442118,-0.01525879,-0.05340576,-0.03814697,-0.00195312,-0.02209473,1.02258301,64.79588318,347.30194092,345.79669189,2,34506583,1487057271
18.430138,0.04577637,-0.06866455,0.01525879,-0.00256348,-0.02075195,1.01824951,64.79588318,347.30194092,345.79669189,2,34506612,1487057271
18.448109,0.02288818,-0.11444092,-0.05340576,-0.00109863,-0.02075195,1.02532959,70.04960632,356.11672974,340.73626709,2,34506645,1487057271
18.439123,-0.03814697,0.05340576,-0.00762939,-0.00042725,-0.02185059,1.02355957,70.04960632,356.11672974,340.73626709,2,34506674,1487057271
18.433132,0.00762939,0.03814697,-0.09918213,-0.00091553,-0.02258301,1.02014160,70.04960632,356.11672974,340.73626709,2,34506702,1487057271
18.439123,0.02288818,0.03814697,0.02288818,-0.00115967,-0.02050781,1.01855469,70.04960632,356.11672974,340.73626709,2,34506732,1487057271
18.442118,-0.09155273,-0.07629395,-0.00762939,-0.00036621,-0.02227783,1.01745605,70.04960632,356.11672974,340.73626709,2,34506761,1487057271
18.451103,-0.03814697,0.01525879,-0.04577637,0.00000000,-0.02026367,1.02410889,54.28844452,361.40557861,345.79669189,2,34506791,1487057271
18.451103,-0.14495850,-0.00762939,-0.03814697,0.00036621,-0.02026367,1.01971436,54.28844452,361.40557861,345.79669189,2,34506822,1487057271
18.442118,-0.01525879,0.10681152,-0.10681152,-0.00177002,-0.02142334,1.02142334,54.28844452,361.40557861,345.79669189,2,34506854,1487057271
18.436129,-0.15258789,-0.04577637,0.01525879,-0.00164795,-0.02130127,1.01770020,54.28844452,361.40557861,345.79669189,2,34506883,1487057271
18.430138,-0.03051758,-0.08392334,-0.06103516,-0.00378418,-0.02410889,1.01910400,47.28348160,354.35375977,345.79669189,2,34506912,1487057271
18.427143,0.10681152,-0.03814697,-0.03051758,-0.00109863,-0.02105713,1.01507568,47.28348160,354.35375977,345.79669189,2,34506942,1487057271
18.433132,-0.11444092,-0.02288818,0.03051758,-0.00091553,-0.02197266,1.02014160,47.28348160,354.35375977,345.79669189,2,34506971,1487057271
18.448109,0.03814697,-0.00762939,0.03814697,-0.00201416,-0.02246094,1.02075195,47.28348160,354.35375977,345.79669189,2,34507000,1487057271
18.451103,-0.03051758,-0.03814697,0.03051758,-0.00067139,-0.02166748,1.01776123,49.03472137,352.59082031,347.48352051,2,34507029,1487057272
18.433132,-0.05340576,-0.07629395,0.02288818,-0.00280762,-0.02154541,1.02069092,49.03472137,352.59082031,347.48352051,2,34507064,1487057272
18.439123,0.05340576,-0.11444092,-0.08392334,-0.00085449,-0.02020264,1.02252197,49.03472137,352.59082031,347.48352051,2,34507095,1487057272
18.439123,-0.09155273,-0.09155273,-0.00762939,-0.00201416,-0.02124023,1.01989746,49.03472137,352.59082031,347.48352051,2,34507124,1487057272
18.472071,-0.04577637,-0.03051758,-0.06866455,0.00006104,-0.02221680,1.02447510,49.03472137,352.59082031,350.85714722,2,34507155,1487057272
18.439123,-0.06103516,0.01525879,0.01525879,-0.00042725,-0.02038574,1.02105713,49.03472137,352.59082031,350.85714722,2,34507189,1487057272
18.421152,-0.02288818,-0.02288818,0.00762939,-0.00164795,-0.02056885,1.02197266,49.03472137,352.59082031,350.85714722,2,34507219,1487057272
18.448109,-0.08392334,0.00762939,-0.00762939,-0.00024414,-0.02264404,1.01898193,49.03472137,352.59082031,350.85714722,2,34507248,1487057272
18.436129,-0.09155273,-0.06866455,-0.04577637,-0.00305176,-0.01922607,1.02337646,54.28844452,361.40557861,345.79669189,2,34507277,1487057272
18.430138,-0.06866455,-0.01525879,-0.02288818,-0.00042725,-0.01977539,1.02044678,54.28844452,361.40557861,345.79669189,2,34507307,1487057272
18.427143,-0.04577637,-0.06103516,0.03051758,-0.00225830,-0.02075195,1.01837158,54.28844452,361.40557861,345.79669189,2,34507336,1487057272
18.436129,0.00762939,-0.09918213,-0.01525879,0.00048828,-0.02130127,1.01818848,54.28844452,361.40557861,345.79669189,2,34507366,1487057272
18.439123,-0.04577637,-0.01525879,0.02288818,-0.00183105,-0.02124023,1.02386475,57.79092407,350.82785034,339.04943848,2,34507399,1487057272
18.430138,0.00762939,-0.09918213,0.00762939,-0.00207520,-0.01904297,1.02124023,57.79092407,350.82785034,339.04943848,2,34507429,1487057272
18.448109,0.03051758,-0.09918213,0.03051758,0.00036621,-0.02093506,1.01916504,57.79092407,350.82785034,339.04943848,2,34507463,1487057272
18.433132,-0.04577637,-0.14495850,-0.06103516,-0.00006104,-0.02276611,1.01965332,57.79092407,350.82785034,339.04943848,2,34507492,1487057272
18.460089,0.06103516,-0.00762939,-0.01525879,-0.00134277,-0.01947021,1.02386475,56.03968430,342.01309204,360.97802734,2,34507522,1487057272
18.442118,-0.03814697,0.05340576,-0.00762939,0.00122070,-0.02215576,1.02423096,56.03968430,342.01309204,360.97802734,2,34507552,1487057272
18.436129,-0.07629395,-0.00762939,-0.04577637,-0.00054932,-0.02056885,1.02294922,56.03968430,342.01309204,360.97802734,2,34507581,1487057272
18.418158,-0.06866455,0.03051758,-0.06103516,-0.00128174,-0.02154541,1.02197266,56.03968430,342.01309204,360.97802734,2,34507610,1487057272
18.436129,-0.09918213,-0.04577637,-0.04577637,-0.00042725,-0.02075195,1.02252197,59.54216385,366.69445801,344.10989380,2,34507640,1487057272
18.451103,-0.06103516,-0.04577637,-0.05340576,-0.00195312,-0.02038574,1.01959229,59.54216385,366.69445801,344.10989380,2,34507673,1487057272
18.442118,-0.09155273,0.06866455,-0.06103516,0.00012207,-0.02032471,1.01690674,59.54216385,366.69445801,344.10989380,2,34507704,1487057272
18.436129,-0.06103516,0.00762939,0.00762939,-0.00183105,-0.02178955,1.01837158,59.54216385,366.69445801,344.10989380,2,34507733,1487057272
18.445114,-0.07629395,0.02288818,-0.07629395,-0.00103760,-0.02069092,1.01971436,56.03968430,356.11672974,357.60440063,2,34507762,1487057272
18.442118,-0.09155273,-0.03814697,-0.09155273,-0.00042725,-0.01843262,1.02099609,56.03968430,356.11672974,357.60440063,2,34507791,1487057272
18.436129,0.00762939,0.04577637,-0.03051758,-0.00097656,-0.02130127,1.01947021,56.03968430,356.11672974,357.60440063,2,34507820,1487057272
18.427143,-0.08392334,0.02288818,0.02288818,-0.00122070,-0.02142334,1.01867676,56.03968430,356.11672974,357.60440063,2,34507849,1487057272
18.430138,-0.03814697,0.00000000,-0.00762939,0.00006104,-0.02020264,1.02282715,56.03968430,356.11672974,357.60440063,2,34507883,1487057272
18.415161,-0.06866455,0.00762939,-0.04577637,-0.00030518,-0.02166748,1.02374268,52.53720474,345.53900146,347.48352051,2,34507914,1487057272
18.451103,-0.04577637,0.00762939,0.05340576,-0.00091553,-0.02258301,1.02166748,52.53720474,345.53900146,347.48352051,2,34507944,1487057272
18.445114,-0.00762939,-0.03051758,0.00762939,0.00073242,-0.01922607,1.01959229,52.53720474,345.53900146,347.48352051,2,34507975,1487057272
18.442118,-0.12207031,-0.00762939,-0.07629395,-0.00006104,-0.02099609,1.02069092,52.53720474,345.53900146,347.48352051,2,34508004,1487057272
18.457094,-0.02288818,0.02288818,0.01525879,-0.00012207,-0.02050781,1.02020264,68.29836273,354.35375977,359.29119873,2,34508034,1487057273
18.436129,-0.12969971,0.00000000,0.03051758,-0.00054932,-0.02136230,1.02215576,68.29836273,354.35375977,359.29119873,2,34508064,1487057273
18.460089,-0.04577637,-0.00762939,-0.10681152,-0.00256348,-0.01983643,1.02508545,68.29836273,354.35375977,359.29119873,2,34508093,1487057273
18.442118,-0.06103516,0.03051758,0.08392334,0.00012207,-0.02130127,1.02038574,68.29836273,354.35375977,359.29119873,2,34508122,1487057273
18.433132,-0.12207031,0.03814697,0.01525879,-0.00219727,-0.02239990,1.02349854,50.78596115,347.30194092,342.42306519,2,34508153,1487057273
18.436129,0.01525879,-0.01525879,0.00762939,-0.00036621,-0.02044678,1.01904297,50.78596115,347.30194092,342.42306519,2,34508186,1487057273
18.436129,-0.06866455,-0.03814697,-0.09918213,-0.00299072,-0.02044678,1.01977539,50.78596115,347.30194092,342.42306519,2,34508215,1487057273
18.424147,-0.10681152,0.01525879,-0.02288818,-0.00219727,-0.02203369,1.02075195,50.78596115,347.30194092,342.42306519,2,34508244,1487057273
18.445114,-0.00762939,-0.00762939,-0.02288818,-0.00085449,-0.02185059,1.02386475,52.53720474,349.06491089,360.97802734,2,34508273,1487057273
18.445114,-0.08392334,-0.00762939,0.01525879,0.00006104,-0.01947021,1.02398682,52.53720474,349.06491089,360.97802734,2,34508303,1487057273
18.460089,-0.04577637,0.04577637,0.00000000,-0.00122070,-0.01873779,1.02392578,52.53720474,349.06491089,360.97802734,2,34508332,1487057273
18.427143,-0.01525879,0.02288818,0.01525879,-0.00091553,-0.01892090,1.01898193,52.53720474,349.06491089,360.97802734,2,34508362,1487057273
18.436129,-0.04577637,0.02288818,0.00762939,-0.00195312,-0.01940918,1.02246094,64.79588318,357.87966919,352.54394531,2,34508395,1487057273
18.439123,-0.09155273,-0.03051758,0.00000000,0.00000000,-0.02093506,1.01959229,64.79588318,357.87966919,352.54394531,2,34508426,1487057273
18.436129,-0.00762939,-0.02288818,-0.06103516,-0.00018311,-0.01983643,1.01898193,64.79588318,357.87966919,352.54394531,2,34508502,1487057273
18.436129,0.06103516,-0.05340576,0.00000000,-0.00122070,-0.02130127,1.02429199,54.28844452,354.35375977,359.29119873,2,34508532,1487057273
18.451103,-0.09918213,0.00762939,0.00762939,-0.00231934,-0.02014160,1.02081299,54.28844452,354.35375977,359.29119873,2,34508562,1487057273
18.442118,0.03814697,0.01525879,-0.05340576,-0.00140381,-0.02087402,1.01629639,54.28844452,354.35375977,359.29119873,2,34508596,1487057273
18.439123,-0.03814697,-0.08392334,-0.01525879,-0.00311279,-0.02294922,1.02178955,54.28844452,354.35375977,359.29119873,2,34508628,1487057273
18.421152,-0.05340576,0.00000000,-0.09918213,-0.00128174,-0.01971436,1.02185059,52.53720474,363.16854858,347.48352051,2,34508657,1487057273
18.451103,-0.10681152,0.04577637,-0.03814697,-0.00140381,-0.02172852,1.02471924,52.53720474,363.16854858,347.48352051,2,34508687,1487057273
18.463085,-0.06103516,-0.09155273,-0.00762939,-0.00152588,-0.02301025,1.02264404,52.53720474,363.16854858,347.48352051,2,34508717,1487057273
18.451103,0.01525879,-0.04577637,0.04577637,-0.00164795,-0.02117920,1.02307129,52.53720474,363.16854858,347.48352051,2,34508746,1487057273
18.439123,-0.09155273,-0.03051758,-0.03814697,0.00073242,-0.02032471,1.02581787,59.54216385,359.64263916,344.10989380,2,34508775,1487057273
18.475065,-0.01525879,0.06103516,-0.01525879,-0.00152588,-0.02142334,1.02276611,59.54216385,359.64263916,344.10989380,2,34508808,1487057273
18.439123,-0.10681152,-0.01525879,-0.00762939,-0.00280762,-0.02270508,1.02160645,59.54216385,359.64263916,344.10989380,2,34508839,1487057273
18.433132,-0.11444092,0.03051758,-0.09918213,0.00036621,-0.02142334,1.02142334,59.54216385,359.64263916,344.10989380,2,34508868,1487057273
18.448109,-0.07629395,0.08392334,0.05340576,-0.00170898,-0.02130127,1.02136230,52.53720474,352.59082031,347.48352051,2,34508899,1487057273
18.442118,-0.09155273,-0.00762939,-0.00762939,-0.00128174,-0.02008057,1.02172852,52.53720474,352.59082031,347.48352051,2,34508929,1487057273
18.445114,-0.01525879,-0.09155273,-0.02288818,0.00109863,-0.02398682,1.02246094,52.53720474,352.59082031,347.48352051,2,34508959,1487057273
18.448109,-0.03051758,-0.03051758,0.06103516,0.00140381,-0.02178955,1.02044678,52.53720474,352.59082031,347.48352051,2,34508989,1487057273
18.463085,-0.02288818,-0.01525879,-0.00762939,-0.00097656,-0.02136230,1.02197266,42.02976227,356.11672974,337.36264038,2,34509018,1487057273
18.430138,-0.08392334,0.00762939,0.00762939,0.00024414,-0.02093506,1.02166748,42.02976227,356.11672974,337.36264038,2,34509048,1487057274
18.433132,-0.04577637,-0.03051758,-0.05340576,0.00115967,-0.02056885,1.02490234,42.02976227,356.11672974,337.36264038,2,34509077,1487057274
18.448109,-0.15258789,-0.01525879,0.01525879,-0.00122070,-0.02020264,1.01782227,42.02976227,356.11672974,337.36264038,2,34509112,1487057274
18.448109,0.00000000,0.01525879,0.01525879,-0.00134277,-0.02087402,1.02221680,54.28844452,354.35375977,342.42306519,2,34509143,1487057274
18.451103,-0.12207031,-0.06866455,-0.00762939,0.00024414,-0.01989746,1.02136230,54.28844452,354.35375977,342.42306519,2,34509173,1487057274
18.436129,-0.03051758,-0.03051758,0.01525879,0.00018311,-0.02117920,1.02416992,54.28844452,354.35375977,342.42306519,2,34509204,1487057274
18.421152,0.00000000,0.01525879,-0.01525879,-0.00042725,-0.02075195,1.02014160,54.28844452,354.35375977,342.42306519,2,34509233,1487057274
18.436129,-0.08392334,-0.09918213,-0.02288818,-0.00311279,-0.01995850,1.02130127,59.54216385,352.59082031,337.36264038,2,34509263,1487057274
18.448109,-0.03814697,0.00000000,0.03814697,-0.00006104,-0.02117920,1.02087402,59.54216385,352.59082031,337.36264038,2,34509293,1487057274
18.448109,-0.00762939,0.09155273,0.00762939,-0.00097656,-0.02148438,1.01983643,59.54216385,352.59082031,337.36264038,2,34509322,1487057274
18.421152,0.00000000,0.01525879,-0.03814697,-0.00024414,-0.01965332,1.01995850,59.54216385,352.59082031,337.36264038,2,34509351,1487057274
18.442118,0.00000000,0.05340576,-0.05340576,-0.00146484,-0.01959229,1.02124023,56.03968430,366.69445801,354.23077393,2,34509381,1487057274
18.439123,-0.02288818,-0.02288818,-0.00762939,-0.00067139,-0.02038574,1.01910400,56.03968430,366.69445801,354.23077393,2,34509414,1487057274
18.457094,0.01525879,0.01525879,0.00000000,-0.00152588,-0.02081299,1.01995850,52.53720474,352.59082031,337.36264038,2,34509517,1487057274
18.442118,0.06866455,-0.07629395,-0.01525879,-0.00396729,-0.02020264,1.02075195,52.53720474,352.59082031,337.36264038,2,34509548,1487057274
18.451103,0.03814697,0.03814697,0.00762939,-0.00140381,-0.02130127,1.02252197,52.53720474,352.59082031,337.36264038,2,34509577,1487057274
18.436129,-0.06866455,0.02288818,0.00000000,-0.00219727,-0.01757812,1.02313232,52.53720474,352.59082031,337.36264038,2,34509606,1487057274
18.442118,0.03814697,-0.11444092,-0.02288818,0.00097656,-0.02087402,1.02471924,49.03472137,352.59082031,354.23077393,2,34509634,1487057274
18.442118,-0.10681152,0.03814697,-0.04577637,-0.00195312,-0.02069092,1.02227783,49.03472137,352.59082031,354.23077393,2,34509664,1487057274
18.454100,-0.04577637,0.01525879,-0.00762939,-0.00189209,-0.01892090,1.02172852,49.03472137,352.59082031,354.23077393,2,34509693,1487057274
18.448109,-0.09918213,0.03051758,-0.06103516,-0.00067139,-0.02093506,1.02264404,49.03472137,352.59082031,354.23077393,2,34509722,1487057274
18.451103,-0.18310547,0.00762939,-0.01525879,-0.00036621,-0.02014160,1.01928711,49.03472137,352.59082031,354.23077393,2,34509751,1487057274
18.454100,-0.03051758,0.00762939,-0.08392334,-0.00012207,-0.01983643,1.02050781,50.78596115,361.40557861,342.42306519,2,34509780,1487057274
18.460089,0.07629395,-0.02288818,0.04577637,0.00006104,-0.02148438,1.02496338,50.78596115,361.40557861,342.42306519,2,34509810,1487057274
18.436129,-0.04577637,-0.03051758,-0.02288818,-0.00170898,-0.02081299,1.02325439,50.78596115,361.40557861,342.42306519,2,34509839,1487057274
18.421152,-0.11444092,0.00000000,-0.04577637,-0.00109863,-0.01940918,1.02087402,50.78596115,361.40557861,342.42306519,2,34509868,1487057274
18.430138,0.04577637,-0.01525879,-0.01525879,-0.00109863,-0.02148438,1.02520752,57.79092407,364.93148804,355.91757202,2,34509897,1487057274
18.454100,-0.02288818,0.03051758,-0.03814697,0.00085449,-0.02331543,1.01959229,57.79092407,364.93148804,355.91757202,2,34509932,1487057274
18.430138,-0.04577637,0.04577637,-0.01525879,0.00109863,-0.02209473,1.02026367,57.79092407,364.93148804,355.91757202,2,34509962,1487057274
18.436129,0.00000000,0.00000000,0.01525879,-0.00231934,-0.02087402,1.02124023,57.79092407,364.93148804,355.91757202,2,34509991,1487057274
18.442118,-0.01525879,-0.04577637,0.00000000,-0.00073242,-0.02172852,1.02050781,56.03968430,345.53900146,347.48352051,2,34510020,1487057274
18.436129,-0.20599365,-0.03051758,-0.01525879,-0.00079346,-0.02258301,1.02124023,56.03968430,345.53900146,347.48352051,2,34510051,1487057275
18.433132,-0.06866455,-0.03051758,-0.08392334,-0.00189209,-0.02221680,1.02294922,56.03968430,345.53900146,347.48352051,2,34510082,1487057275
18.445114,-0.02288818,-0.16021729,-0.01525879,-0.00067139,-0.02252197,1.01892090,56.03968430,345.53900146,347.48352051,2,34510111,1487057275
18.436129,-0.07629395,0.08392334,-0.04577637,0.00012207,-0.01953125,1.02374268,66.54712677,356.11672974,350.85714722,2,34510140,1487057275
18.445114,-0.06103516,0.06866455,-0.00762939,-0.00250244,-0.02093506,1.02410889,66.54712677,356.11672974,350.85714722,2,34510170,1487057275
18.439123,-0.05340576,-0.06103516,-0.04577637,-0.00231934,-0.02105713,1.02008057,66.54712677,356.11672974,350.85714722,2,34510198,1487057275
18.430138,-0.06866455,0.00762939,-0.01525879,-0.00012207,-0.02038574,1.01641846,66.54712677,356.11672974,350.85714722,2,34510229,1487057275
18.433132,-0.06103516,0.03051758,0.05340576,-0.00030518,-0.02331543,1.02166748,52.53720474,349.06491089,350.85714722,2,34510258,1487057275
18.418158,0.00000000,-0.03814697,-0.09918213,0.00048828,-0.01989746,1.01940918,52.53720474,349.06491089,350.85714722,2,34510290,1487057275
18.415161,-0.12969971,0.00762939,0.06103516,-0.00073242,-0.01934814,1.02087402,52.53720474,349.06491089,350.85714722,2,34510319,1487057275
18.418158,-0.12969971,-0.01525879,-0.02288818,-0.00012207,-0.02117920,1.02026367,52.53720474,349.06491089,350.85714722,2,34510348,1487057275
18.433132,0.00762939,0.00000000,-0.09155273,-0.00103760,-0.02001953,1.02380371,61.29340363,361.40557861,342.42306519,2,34510377,1487057275
18.427143,-0.15258789,-0.02288818,-0.04577637,-0.00146484,-0.01953125,1.02221680,61.29340363,361.40557861,342.42306519,2,34510409,1487057275
18.445114,-0.06103516,0.03814697,0.03051758,-0.00061035,-0.02062988,1.02355957,70.04960632,352.59082031,344.10989380,2,34510531,1487057275
18.430138,-0.01525879,0.00000000,-0.03814697,-0.00170898,-0.02209473,1.01812744,70.04960632,352.59082031,344.10989380,2,34510563,1487057275
18.418158,-0.06103516,0.03814697,-0.03051758,0.00085449,-0.02026367,1.02008057,49.03472137,363.16854858,357.60440063,2,34510679,1487057275
18.424147,0.00762939,0.00000000,-0.01525879,-0.00195312,-0.02069092,1.02429199,49.03472137,363.16854858,357.60440063,2,34510710,1487057275
18.424147,-0.09155273,-0.06866455,-0.00762939,-0.00305176,-0.02069092,1.02105713,49.03472137,363.16854858,357.60440063,2,34510742,1487057275
18.436129,-0.12207031,0.01525879,0.03051758,0.00061035,-0.02136230,1.02014160,56.03968430,370.22036743,347.48352051,2,34510771,1487057275
18.433132,-0.03051758,0.00000000,-0.05340576,-0.00054932,-0.02178955,1.02142334,56.03968430,370.22036743,347.48352051,2,34510802,1487057275
18.427143,-0.04577637,0.00762939,0.00000000,-0.00164795,-0.01977539,1.01800537,56.03968430,370.22036743,347.48352051,2,34510831,1487057275
18.439123,-0.09155273,0.02288818,-0.05340576,-0.00079346,-0.01995850,1.01965332,56.03968430,370.22036743,347.48352051,2,34510860,1487057275
18.430138,-0.03051758,-0.01525879,-0.01525879,0.00006104,-0.02166748,1.02185059,66.54712677,352.59082031,347.48352051,2,34510891,1487057275
18.427143,-0.04577637,-0.09155273,-0.07629395,-0.00067139,-0.02111816,1.02172852,66.54712677,352.59082031,347.48352051,2,34510921,1487057275
18.436129,0.01525879,-0.04577637,-0.00762939,-0.00189209,-0.02160645,1.02209473,66.54712677,352.59082031,347.48352051,2,34510950,1487057275
18.433132,-0.08392334,-0.01525879,-0.02288818,-0.00024414,-0.02014160,1.01873779,66.54712677,352.59082031,347.48352051,2,34510980,1487057275
18.433132,-0.03051758,0.00762939,-0.10681152,0.00024414,-0.02069092,1.02307129,43.78100204,343.77603149,342.42306519,2,34511009,1487057275
18.442118,-0.04577637,-0.04577637,0.00762939,-0.00042725,-0.02142334,1.02343750,43.78100204,343.77603149,342.42306519,2,34511039,1487057276
18.457094,-0.06866455,0.05340576,-0.04577637,-0.00079346,-0.02343750,1.01861572,43.78100204,343.77603149,342.42306519,2,34511068,1487057276
18.454100,-0.06103516,-0.03051758,-0.01525879,-0.00152588,-0.02087402,1.02038574,43.78100204,343.77603149,342.42306519,2,34511097,1487057276
18.427143,-0.13732910,0.06103516,-0.08392334,-0.00054932,-0.02209473,1.02313232,63.04464340,342.01309204,350.85714722,2,34511126,1487057276
18.448109,0.04577637,0.02288818,-0.03814697,-0.00073242,-0.02148438,1.02166748,63.04464340,342.01309204,350.85714722,2,34511156,1487057276
18.433132,-0.06866455,-0.03051758,-0.03051758,0.00000000,-0.02026367,1.01953125,63.04464340,342.01309204,350.85714722,2,34511185,1487057276
18.412167,-0.04577637,0.03051758,-0.10681152,-0.00158691,-0.01947021,1.02099609,63.04464340,342.01309204,350.85714722,2,34511212,1487057276
18.436129,-0.04577637,-0.05340576,0.05340576,-0.00073242,-0.02069092,1.02160645,63.04464340,342.01309204,350.85714722,2,34511241,1487057276
18.433132,-0.09155273,0.00762939,0.00762939,0.00079346,-0.01965332,1.02087402,45.53224182,359.64263916,344.10989380,2,34511270,1487057276
18.448109,0.02288818,-0.06103516,-0.02288818,-0.00286865,-0.02191162,1.01934814,45.53224182,359.64263916,344.10989380,2,34511300,1487057276
18.445114,-0.01525879,-0.08392334,-0.01525879,-0.00152588,-0.02136230,1.02331543,45.53224182,359.64263916,344.10989380,2,34511330,1487057276
18.448109,-0.04577637,0.05340576,-0.08392334,-0.00067139,-0.02148438,1.02227783,45.53224182,359.64263916,344.10989380,2,34511359,1487057276
18.439123,-0.06866455,-0.02288818,-0.02288818,-0.00134277,-0.02191162,1.02447510,56.03968430,359.64263916,344.10989380,2,34511396,1487057276
18.448109,-0.03051758,0.04577637,-0.06866455,0.00067139,-0.02050781,1.02526855,56.03968430,359.64263916,344.10989380,2,34511426,1487057276
18.424147,0.02288818,-0.00762939,-0.03814697,-0.00073242,-0.02062988,1.01843262,56.03968430,359.64263916,344.10989380,2,34511457,1487057276
18.424147,0.00000000,0.03051758,-0.07629395,-0.00079346,-0.01989746,1.02325439,56.03968430,359.64263916,344.10989380,2,34511486,1487057276
18.457094,-0.00762939,-0.01525879,0.00762939,-0.00085449,-0.02087402,1.02075195,52.53720474,345.53900146,333.98901367,2,34511515,1487057276
18.451103,-0.02288818,-0.03051758,0.03814697,-0.00073242,-0.02081299,1.02014160,52.53720474,345.53900146,333.98901367,2,34511545,1487057276
18.433132,0.00762939,0.00762939,0.03814697,0.00134277,-0.02185059,1.02209473,52.53720474,345.53900146,333.98901367,2,34511574,1487057276
18.457094,-0.03051758,-0.03051758,0.00000000,-0.00103760,-0.02069092,1.02075195,59.54216385,363.16854858,344.10989380,2,34511655,1487057276
18.445114,-0.00762939,0.00000000,-0.03814697,-0.00115967,-0.02093506,1.01983643,59.54216385,363.16854858,344.10989380,2,34511686,1487057276
18.451103,-0.03051758,0.03814697,-0.06866455,-0.00030518,-0.02142334,1.02227783,59.54216385,363.16854858,344.10989380,2,34511715,1487057276
18.436129,-0.04577637,-0.06103516,0.03051758,-0.00250244,-0.02105713,1.01794434,59.54216385,363.16854858,344.10989380,2,34511744,1487057276
18.439123,-0.12207031,-0.01525879,0.00762939,-0.00134277,-0.02093506,1.02142334,52.53720474,352.59082031,347.48352051,2,34511886,1487057276
18.436129,0.03814697,-0.06866455,-0.03051758,-0.00030518,-0.01989746,1.01916504,52.53720474,352.59082031,347.48352051,2,34511916,1487057276
18.415161,-0.03814697,0.11444092,-0.02288818,-0.00152588,-0.02404785,1.02056885,52.53720474,352.59082031,347.48352051,2,34511945,1487057276
18.442118,0.06866455,0.00762939,0.06103516,-0.00115967,-0.02209473,1.01940918,52.53720474,352.59082031,347.48352051,2,34511975,1487057276
18.445114,-0.05340576,0.06103516,-0.02288818,-0.00286865,-0.02087402,1.02630615,54.28844452,364.93148804,342.42306519,2,34512048,1487057277
18.442118,-0.02288818,0.00762939,-0.01525879,-0.00140381,-0.02258301,1.02069092,54.28844452,364.93148804,342.42306519,2,34512081,1487057277
18.418158,0.02288818,0.00762939,0.01525879,-0.00085449,-0.02136230,1.02362061,54.28844452,364.93148804,342.42306519,2,34512112,1487057277
18.448109,-0.00762939,-0.03814697,-0.06103516,-0.00152588,-0.02001953,1.02386475,56.03968430,366.69445801,347.48352051,2,34512141,1487057277
18.439123,0.05340576,0.00000000,-0.07629395,-0.00006104,-0.01989746,1.02154541,56.03968430,366.69445801,347.48352051,2,34512175,1487057277
18.457094,0.00000000,-0.03051758,0.01525879,-0.00128174,-0.02233887,1.02313232,43.78100204,336.72421265,332.30218506,2,34512259,1487057277
18.439123,-0.06866455,-0.12207031,-0.06103516,-0.00140381,-0.02050781,1.02203369,43.78100204,336.72421265,332.30218506,2,34512288,1487057277
18.430138,-0.05340576,-0.04577637,-0.03814697,-0.00231934,-0.02099609,1.01666260,43.78100204,336.72421265,332.30218506,2,34512318,1487057277
18.463085,0.06103516,0.01525879,-0.02288818,-0.00091553,-0.01916504,1.01947021,43.78100204,336.72421265,332.30218506,2,34512354,1487057277
18.433132,-0.06103516,0.05340576,0.02288818,-0.00201416,-0.02069092,1.01983643,57.79092407,368.45739746,349.17031860,2,34512426,1487057277
18.430138,-0.13732910,-0.09918213,-0.00762939,-0.00201416,-0.02075195,1.02117920,66.54712677,345.53900146,347.48352051,2,34512494,1487057277
18.445114,0.05340576,0.03051758,-0.06866455,0.00036621,-0.02099609,1.02130127,66.54712677,345.53900146,347.48352051,2,34512561,1487057277
18.430138,-0.16021729,0.02288818,-0.04577637,-0.00103760,-0.02117920,1.02124023,47.28348160,364.93148804,349.17031860,2,34512680,1487057277
18.445114,-0.01525879,-0.01525879,-0.09155273,-0.00195312,-0.02081299,1.02209473,56.03968430,356.11672974,357.60440063,2,34512748,1487057277
18.436129,-0.09918213,-0.02288818,0.01525879,-0.00317383,-0.02105713,1.02087402,56.03968430,356.11672974,357.60440063,2,34512779,1487057277
18.472071,-0.03814697,0.00000000,-0.02288818,-0.00152588,-0.02215576,1.01947021,50.78596115,350.82785034,342.42306519,2,34512900,1487057277
18.448109,0.03814697,-0.03814697,-0.06103516,0.00000000,-0.02221680,1.02362061,50.78596115,350.82785034,342.42306519,2,34512931,1487057277
18.454100,-0.08392334,-0.02288818,-0.01525879,-0.00061035,-0.02142334,1.02081299,50.78596115,350.82785034,342.42306519,2,34512982,1487057277
18.448109,-0.06866455,0.05340576,-0.00762939,-0.00189209,-0.02130127,1.02294922,56.03968430,342.01309204,337.36264038,2,34513099,1487057278
18.433132,-0.04577637,0.02288818,-0.02288818,-0.00115967,-0.01977539,1.02136230,64.79588318,343.77603149,349.17031860,2,34513209,1487057278
18.454100,-0.20599365,0.06103516,0.00762939,-0.00189209,-0.02148438,1.01892090,57.79092407,336.72421265,349.17031860,2,34513239,1487057278
18.424147,-0.02288818,0.00762939,0.02288818,-0.00048828,-0.02209473,1.02038574,57.79092407,336.72421265,349.17031860,2,34513269,1487057278
18.424147,-0.03051758,0.06866455,-0.05340576,-0.00048828,-0.02038574,1.02093506,57.79092407,336.72421265,349.17031860,2,34513316,1487057278
18.433132,-0.08392334,-0.03051758,-0.03051758,-0.00244141,-0.02020264,1.02099609,57.79092407,350.82785034,355.91757202,2,34513420,1487057278
18.433132,-0.03051758,-0.08392334,0.03814697,-0.00024414,-0.02014160,1.02154541,57.79092407,350.82785034,355.91757202,2,34513450,1487057278
18.424147,-0.05340576,-0.01525879,-0.08392334,0.00091553,-0.02111816,1.02008057,57.79092407,350.82785034,355.91757202,2,34513480,1487057278
18.409172,0.00000000,0.03814697,-0.04577637,-0.00225830,-0.02142334,1.01977539,57.79092407,350.82785034,342.42306519,2,34513617,1487057278
18.451103,-0.06103516,0.00000000,0.14495850,-0.00268555,-0.02001953,1.02197266,57.79092407,350.82785034,342.42306519,2,34513648,1487057278
18.454100,-0.06866455,-0.08392334,0.00000000,-0.00274658,-0.02209473,1.02148438,57.79092407,350.82785034,342.42306519,2,34513677,1487057278
18.430138,0.01525879,-0.01525879,-0.00762939,-0.00152588,-0.02246094,1.01971436,57.79092407,350.82785034,342.42306519,2,34513711,1487057278
18.442118,-0.01525879,0.01525879,-0.00762939,-0.00018311,-0.02148438,1.01721191,43.78100204,350.82785034,339.04943848,2,34513818,1487057278
18.436129,-0.00762939,-0.06866455,0.00000000,-0.00238037,-0.02050781,1.01745605,43.78100204,350.82785034,339.04943848,2,34513850,1487057278
18.436129,0.00762939,0.03051758,0.02288818,-0.00140381,-0.02044678,1.02557373,57.79092407,350.82785034,332.30218506,2,34513879,1487057278
18.433132,-0.07629395,0.01525879,0.03814697,-0.00018311,-0.02227783,1.02014160,57.79092407,350.82785034,332.30218506,2,34513909,1487057278
18.424147,0.02288818,0.04577637,-0.06103516,-0.00073242,-0.02056885,1.02142334,63.04464340,352.59082031,347.48352051,2,34514022,1487057279
18.430138,-0.06866455,0.03814697,-0.00762939,-0.00006104,-0.02124023,1.01849365,63.04464340,352.59082031,347.48352051,2,34514052,1487057279
18.430138,0.00762939,-0.02288818,-0.05340576,-0.00054932,-0.01885986,1.02026367,63.04464340,352.59082031,347.48352051,2,34514081,1487057279
18.427143,-0.06103516,-0.03814697,0.03051758,-0.00164795,-0.02270508,1.01898193,63.04464340,352.59082031,347.48352051,2,34514110,1487057279
18.457094,-0.03814697,0.00762939,0.01525879,-0.00054932,-0.02014160,1.02221680,57.79092407,333.19830322,339.04943848,2,34514267,1487057279
18.442118,-0.16784668,0.03051758,-0.06866455,0.00122070,-0.02075195,1.01843262,57.79092407,333.19830322,339.04943848,2,34514300,1487057279
18.466080,0.00000000,-0.00762939,0.00762939,-0.00207520,-0.01971436,1.02050781,57.79092407,333.19830322,339.04943848,2,34514329,1487057279
18.433132,-0.11444092,-0.03814697,-0.01525879,0.00042725,-0.02154541,1.02178955,50.78596115,368.45739746,339.04943848,2,34514436,1487057279
18.433132,-0.06866455,0.05340576,-0.03051758,-0.00134277,-0.01977539,1.02087402,50.78596115,368.45739746,339.04943848,2,34514467,1487057279
18.448109,0.00762939,-0.03814697,-0.07629395,0.00036621,-0.02099609,1.02349854,56.03968430,349.06491089,333.98901367,2,34514496,1487057279
18.427143,-0.05340576,-0.01525879,-0.02288818,-0.00061035,-0.02081299,1.02166748,56.03968430,349.06491089,333.98901367,2,34514534,1487057279
18.457094,0.03051758,0.03814697,0.06103516,0.00006104,-0.02160645,1.02111816,47.28348160,368.45739746,339.04943848,2,34514641,1487057279
18.439123,0.00000000,-0.06103516,0.02288818,0.00079346,-0.02136230,1.02270508,47.28348160,368.45739746,339.04943848,2,34514674,1487057279
18.451103,-0.07629395,0.05340576,0.00762939,0.00018311,-0.02270508,1.02288818,47.28348160,368.45739746,339.04943848,2,34514703,1487057279
18.457094,-0.01525879,-0.06103516,-0.05340576,-0.00018311,-0.02075195,1.02197266,57.79092407,357.87966919,339.04943848,2,34514733,1487057279
18.448109,-0.04577637,0.00000000,0.00762939,-0.00012207,-0.02197266,1.01824951,57.79092407,357.87966919,339.04943848,2,34514842,1487057279
18.448109,-0.13732910,-0.03814697,0.01525879,-0.00280762,-0.02130127,1.02423096,50.78596115,357.87966919,339.04943848,2,34514871,1487057279
18.445114,0.04577637,-0.06103516,-0.04577637,-0.00061035,-0.02111816,1.01770020,50.78596115,357.87966919,339.04943848,2,34514901,1487057279
18.448109,-0.10681152,0.07629395,-0.04577637,0.00006104,-0.01959229,1.02093506,50.78596115,357.87966919,339.04943848,2,34514930,1487057279
18.430138,-0.10681152,0.02288818,-0.03051758,-0.00061035,-0.02136230,1.02331543,61.29340363,347.30194092,339.04943848,2,34515046,1487057280
18.442118,-0.13732910,-0.03814697,-0.00762939,-0.00115967,-0.02288818,1.01959229,61.29340363,347.30194092,339.04943848,2,34515078,1487057280
18.442118,-0.12207031,0.02288818,0.00762939,-0.00140381,-0.02081299,1.02233887,59.54216385,363.16854858,344.10989380,2,34515107,1487057280
18.448109,-0.12969971,0.03051758,-0.02288818,-0.00109863,-0.02050781,1.02172852,59.54216385,363.16854858,344.10989380,2,34515137,1487057280
18.442118,0.06866455,-0.03051758,-0.00762939,-0.00061035,-0.02093506,1.02148438,50.78596115,350.82785034,332.30218506,2,34515256,1487057280
18.445114,-0.13732910,-0.00762939,0.03814697,-0.00103760,-0.02081299,1.02130127,50.78596115,350.82785034,332.30218506,2,34515287,1487057280
18.442118,-0.00762939,0.02288818,0.00762939,-0.00183105,-0.02136230,1.02148438,50.78596115,350.82785034,332.30218506,2,34515316,1487057280
18.418158,-0.03051758,0.03051758,-0.09155273,0.00012207,-0.02185059,1.02172852,50.78596115,350.82785034,332.30218506,2,34515350,1487057280
18.454100,-0.15258789,-0.08392334,0.00762939,-0.00091553,-0.02087402,1.02624512,57.79092407,354.35375977,339.04943848,2,34515460,1487057280
18.430138,-0.10681152,0.01525879,-0.02288818,-0.00152588,-0.02197266,1.02453613,54.28844452,354.35375977,345.79669189,2,34515491,1487057280
18.433132,-0.03051758,-0.03814697,0.00000000,-0.00006104,-0.02166748,1.02172852,54.28844452,354.35375977,345.79669189,2,34515522,1487057280
18.454100,-0.07629395,-0.02288818,0.03814697,-0.00048828,-0.02008057,1.02410889,54.28844452,354.35375977,345.79669189,2,34515554,1487057280
18.427143,0.02288818,-0.03814697,0.04577637,-0.00354004,-0.02093506,1.02111816,50.78596115,354.35375977,349.17031860,2,34515660,1487057280
18.460089,-0.09918213,0.00000000,0.03051758,-0.00048828,-0.02166748,1.02264404,50.78596115,354.35375977,349.17031860,2,34515690,1487057280
18.424147,-0.10681152,0.06103516,-0.09155273,-0.00134277,-0.02209473,1.02154541,50.78596115,354.35375977,349.17031860,2,34515719,1487057280
18.439123,-0.00762939,-0.03051758,0.01525879,-0.00189209,-0.01892090,1.02239990,56.03968430,356.11672974,344.10989380,2,34515748,1487057280
18.445114,-0.05340576,0.01525879,-0.00762939,-0.00158691,-0.01940918,1.02264404,45.53224182,349.06491089,350.85714722,2,34515864,1487057280
18.457094,-0.10681152,-0.06866455,0.09155273,-0.00177002,-0.02166748,1.02465820,45.53224182,349.06491089,350.85714722,2,34515894,1487057280
18.448109,-0.06103516,0.03814697,-0.08392334,-0.00360107,-0.02050781,1.02154541,45.53224182,349.06491089,350.85714722,2,34515923,1487057280
18.442118,-0.00762939,-0.14495850,-0.11444092,-0.00134277,-0.02044678,1.01812744,45.53224182,349.06491089,350.85714722,2,34515951,1487057280
18.442118,0.05340576,-0.03051758,-0.00762939,-0.00048828,-0.01995850,1.01873779,61.29340363,340.25012207,345.79669189,2,34516075,1487057281
18.430138,-0.07629395,0.04577637,-0.02288818,0.00183105,-0.02038574,1.02246094,61.29340363,354.35375977,355.91757202,2,34516106,1487057281
18.451103,-0.03814697,0.00000000,-0.05340576,-0.00073242,-0.02081299,1.02215576,61.29340363,354.35375977,355.91757202,2,34516139,1487057281
18.457094,-0.05340576,-0.03814697,-0.01525879,-0.00103760,-0.01983643,1.02001953,61.29340363,354.35375977,355.91757202,2,34516170,1487057281
18.436129,-0.04577637,-0.09155273,-0.00762939,-0.00109863,-0.02258301,1.02038574,59.54216385,356.11672974,344.10989380,2,34516280,1487057281
18.454100,-0.02288818,0.04577637,-0.03814697,-0.00286865,-0.02221680,1.02349854,59.54216385,356.11672974,344.10989380,2,34516310,1487057281
18.445114,0.03814697,-0.06103516,-0.03814697,-0.00018311,-0.01934814,1.02062988,59.54216385,356.11672974,344.10989380,2,34516339,1487057281
18.427143,-0.00762939,0.01525879,-0.00762939,-0.00158691,-0.02087402,1.02423096,61.29340363,357.87966919,352.54394531,2,34516368,1487057281
18.448109,-0.13732910,-0.02288818,0.01525879,-0.00036621,-0.02111816,1.02374268,45.53224182,363.16854858,344.10989380,2,34516484,1487057281
18.460089,-0.09918213,-0.09155273,0.03051758,-0.00018311,-0.02178955,1.01995850,45.53224182,363.16854858,344.10989380,2,34516515,1487057281
18.481056,-0.04577637,0.00000000,0.03051758,-0.00006104,-0.02172852,1.02130127,45.53224182,363.16854858,344.10989380,2,34516544,1487057281
18.427143,0.02288818,-0.05340576,-0.03814697,0.00000000,-0.02050781,1.02117920,45.53224182,363.16854858,344.10989380,2,34516573,1487057281
18.442118,-0.03814697,0.09155273,0.07629395,-0.00158691,-0.02130127,1.01959229,50.78596115,354.35375977,342.42306519,2,34516689,1487057281
18.430138,-0.05340576,-0.03814697,-0.03814697,-0.00152588,-0.02301025,1.02325439,50.78596115,354.35375977,342.42306519,2,34516720,1487057281
18.439123,0.05340576,0.00000000,0.06103516,-0.00134277,-0.02069092,1.02001953,56.03968430,345.53900146,340.73626709,2,34516749,1487057281
18.457094,-0.19073486,-0.05340576,-0.05340576,-0.00158691,-0.02099609,1.02398682,56.03968430,345.53900146,340.73626709,2,34516777,1487057281
18.454100,-0.02288818,-0.03814697,0.00762939,0.00061035,-0.02130127,1.02410889,70.04960632,363.16854858,347.48352051,2,34516889,1487057281
18.448109,-0.01525879,0.00000000,-0.05340576,-0.00079346,-0.02203369,1.02111816,70.04960632,363.16854858,347.48352051,2,34516921,1487057281
18.439123,-0.05340576,-0.07629395,0.05340576,-0.00207520,-0.02166748,1.02288818,70.04960632,363.16854858,347.48352051,2,34516949,1487057281
18.436129,-0.09155273,-0.04577637,-0.01525879,-0.00042725,-0.02075195,1.02154541,70.04960632,359.64263916,344.10989380,2,34516978,1487057281
18.442118,-0.04577637,0.08392334,-0.06103516,0.00073242,-0.02105713,1.02227783,63.04464340,338.48718262,347.48352051,2,34517099,1487057282
18.445114,-0.17547607,-0.01525879,0.02288818,-0.00158691,-0.02148438,1.02026367,63.04464340,338.48718262,347.48352051,2,34517130,1487057282
18.448109,0.06866455,0.04577637,0.10681152,-0.00170898,-0.02044678,1.01898193,63.04464340,338.48718262,347.48352051,2,34517159,1487057282
18.430138,0.03051758,-0.03051758,-0.04577637,0.00103760,-0.02105713,1.02307129,50.78596115,357.87966919,355.91757202,2,34517299,1487057282
18.445114,0.04577637,-0.10681152,-0.03051758,0.00006104,-0.02301025,1.01904297,50.78596115,357.87966919,355.91757202,2,34517329,1487057282
18.451103,-0.00762939,0.01525879,0.07629395,0.00042725,-0.02349854,1.02349854,47.28348160,357.87966919,342.42306519,2,34517359,1487057282
18.430138,-0.06866455,-0.03051758,-0.07629395,0.00000000,-0.02069092,1.01879883,47.28348160,357.87966919,342.42306519,2,34517389,1487057282
18.436129,0.00000000,-0.03051758,-0.01525879,-0.00109863,-0.02050781,1.02288818,59.54216385,349.06491089,337.36264038,2,34517513,1487057282
18.445114,-0.09155273,-0.00762939,-0.09918213,-0.00091553,-0.02142334,1.02008057,59.54216385,349.06491089,337.36264038,2,34517543,1487057282
18.433132,-0.03814697,-0.09155273,-0.04577637,-0.00067139,-0.02069092,1.02093506,59.54216385,349.06491089,337.36264038,2,34517573,1487057282
18.418158,-0.00762939,0.00000000,0.00000000,-0.00219727,-0.01904297,1.02447510,50.78596115,357.87966919,332.30218506,2,34517606,1487057282
18.448109,-0.10681152,0.03051758,0.00000000,-0.00073242,-0.02117920,1.02166748,50.78596115,357.87966919,332.30218506,2,34517718,1487057282
18.427143,0.09918213,0.13732910,-0.05340576,-0.00067139,-0.02044678,1.02166748,71.80084229,364.93148804,349.17031860,2,34517748,1487057282
18.418158,-0.09918213,-0.02288818,0.01525879,-0.00177002,-0.02154541,1.02221680,71.80084229,364.93148804,349.17031860,2,34517778,1487057282
18.448109,-0.10681152,-0.03051758,-0.05340576,-0.00225830,-0.02178955,1.02282715,71.80084229,364.93148804,349.17031860,2,34517810,1487057282
18.421152,0.04577637,-0.07629395,-0.05340576,-0.00292969,-0.02038574,1.02252197,61.29340363,357.87966919,359.29119873,2,34517919,1487057282
18.451103,0.04577637,0.01525879,0.00000000,-0.00091553,-0.02020264,1.01953125,61.29340363,357.87966919,359.29119873,2,34517949,1487057282
18.409172,-0.16784668,0.00000000,-0.06866455,0.00030518,-0.02203369,1.02142334,57.79092407,375.50921631,359.29119873,2,34517978,1487057282
18.436129,0.00000000,-0.09155273,-0.03051758,-0.00152588,-0.02178955,1.01873779,57.79092407,375.50921631,359.29119873,2,34518013,1487057282
18.439123,-0.06103516,-0.08392334,-0.04577637,-0.00091553,-0.02172852,1.02142334,57.79092407,375.50921631,359.29119873,2,34518042,1487057283
18.451103,0.03051758,-0.05340576,0.00000000,0.00000000,-0.02197266,1.02276611,57.79092407,375.50921631,359.29119873,2,34518072,1487057283
18.424147,0.00762939,0.04577637,-0.03814697,-0.00097656,-0.02099609,1.02331543,61.29340363,347.30194092,335.67581177,2,34518101,1487057283
18.433132,-0.08392334,-0.06103516,0.00000000,-0.00177002,-0.02185059,1.01989746,61.29340363,347.30194092,335.67581177,2,34518131,1487057283
18.430138,0.01525879,-0.06866455,-0.01525879,-0.00012207,-0.02264404,1.02288818,61.29340363,347.30194092,335.67581177,2,34518160,1487057283
18.424147,0.02288818,0.03051758,-0.03051758,-0.00128174,-0.02124023,1.02185059,61.29340363,347.30194092,335.67581177,2,34518189,1487057283
18.424147,0.07629395,-0.03814697,0.00000000,-0.00219727,-0.02252197,1.01977539,61.29340363,347.30194092,335.67581177,2,34518218,1487057283
18.433132,0.01525879,-0.02288818,0.03814697,-0.00012207,-0.02105713,1.02246094,49.03472137,352.59082031,340.73626709,2,34518247,1487057283
18.442118,-0.01525879,-0.09918213,0.07629395,-0.00097656,-0.02075195,1.02026367,49.03472137,352.59082031,340.73626709,2,34518277,1487057283
18.445114,-0.08392334,-0.12207031,-0.04577637,-0.00024414,-0.02166748,1.01892090,49.03472137,352.59082031,340.73626709,2,34518305,1487057283
18.439123,-0.02288818,0.11444092,0.02288818,-0.00097656,-0.01934814,1.02233887,49.03472137,352.59082031,340.73626709,2,34518334,1487057283
18.445114,0.08392334,0.01525879,-0.03814697,0.00024414,-0.02087402,1.02209473,57.79092407,350.82785034,345.79669189,2,34518363,1487057283
18.451103,-0.03051758,0.03814697,-0.03051758,-0.00012207,-0.02044678,1.02148438,57.79092407,350.82785034,345.79669189,2,34518394,1487057283
18.436129,-0.06866455,-0.03814697,0.03051758,-0.00122070,-0.02020264,1.02032471,57.79092407,350.82785034,345.79669189,2,34518425,1487057283
18.439123,-0.06103516,-0.04577637,0.00762939,-0.00061035,-0.01995850,1.01928711,57.79092407,350.82785034,345.79669189,2,34518456,1487057283
18.448109,-0.01525879,0.00762939,-0.02288818,-0.00256348,-0.01953125,1.02093506,54.28844452,368.45739746,342.42306519,2,34518485,1487057283
18.454100,0.00762939,-0.01525879,-0.03051758,0.00012207,-0.01983643,1.02246094,54.28844452,368.45739746,342.42306519,2,34518515,1487057283
18.439123,0.01525879,-0.10681152,-0.02288818,-0.00067139,-0.02020264,1.02172852,54.28844452,368.45739746,342.42306519,2,34518543,1487057283
18.433132,0.00762939,-0.02288818,0.04577637,-0.00250244,-0.01965332,1.02014160,54.28844452,368.45739746,342.42306519,2,34518572,1487057283
18.433132,-0.01525879,-0.08392334,-0.01525879,-0.00195312,-0.02050781,1.02636719,50.78596115,350.82785034,352.54394531,2,34518601,1487057283
18.421152,-0.05340576,-0.09155273,0.06866455,0.00048828,-0.02172852,1.02197266,50.78596115,350.82785034,352.54394531,2,34518631,1487057283
18.445114,-0.04577637,-0.07629395,0.05340576,-0.00164795,-0.02069092,1.02117920,50.78596115,350.82785034,352.54394531,2,34518660,1487057283
18.448109,-0.08392334,-0.06866455,-0.05340576,-0.00122070,-0.02044678,1.01849365,50.78596115,350.82785034,352.54394531,2,34518689,1487057283
18.424147,0.00000000,-0.08392334,-0.08392334,-0.00115967,-0.02191162,1.01873779,70.04960632,352.59082031,350.85714722,2,34518718,1487057283
18.433132,-0.06866455,-0.04577637,0.00000000,-0.00189209,-0.02209473,1.02258301,70.04960632,352.59082031,350.85714722,2,34518748,1487057283
18.427143,-0.04577637,-0.03814697,-0.06103516,-0.00024414,-0.02349854,1.02221680,70.04960632,352.59082031,350.85714722,2,34518777,1487057283
18.412167,-0.13732910,-0.06103516,-0.06103516,-0.00018311,-0.02117920,1.02301025,70.04960632,352.59082031,350.85714722,2,34518806,1487057283
18.430138,0.00762939,-0.09918213,-0.04577637,-0.00134277,-0.02087402,1.02105713,70.04960632,352.59082031,350.85714722,2,34518840,1487057283
18.442118,0.03051758,0.09918213,0.06866455,0.00048828,-0.02191162,1.02331543,54.28844452,361.40557861,359.29119873,2,34518871,1487057283
18.436129,-0.02288818,-0.09155273,-0.03814697,-0.00091553,-0.02069092,1.01776123,54.28844452,361.40557861,359.29119873,2,34518901,1487057283
18.433132,-0.09155273,-0.07629395,-0.05340576,0.00061035,-0.02197266,1.02136230,54.28844452,361.40557861,359.29119873,2,34518933,1487057283
18.433132,-0.06103516,-0.09155273,0.02288818,-0.00067139,-0.02355957,1.02264404,54.28844452,361.40557861,359.29119873,2,34518962,1487057283
18.433132,-0.05340576,-0.00762939,0.03051758,0.00079346,-0.01983643,1.02301025,57.79092407,354.35375977,342.42306519,2,34518991,1487057283
18.421152,-0.01525879,-0.04577637,0.00000000,-0.00054932,-0.02264404,1.01953125,57.79092407,354.35375977,342.42306519,2,34519021,1487057283
18.430138,0.07629395,-0.04577637,-0.04577637,-0.00207520,-0.02264404,1.02081299,57.79092407,354.35375977,342.42306519,2,34519053,1487057284
18.451103,0.06103516,-0.08392334,0.01525879,0.00030518,-0.02050781,1.01788330,57.79092407,354.35375977,342.42306519,2,34519082,1487057284
18.439123,-0.03814697,0.02288818,-0.06103516,-0.00012207,-0.02374268,1.02270508,52.53720474,345.53900146,354.23077393,2,34519112,1487057284
18.442118,-0.14495850,0.05340576,-0.06866455,0.00030518,-0.02319336,1.02404785,52.53720474,345.53900146,354.23077393,2,34519143,1487057284
18.457094,-0.05340576,0.05340576,-0.03051758,0.00109863,-0.02056885,1.01904297,52.53720474,345.53900146,354.23077393,2,34519172,1487057284
18.445114,0.01525879,-0.04577637,0.05340576,-0.00207520,-0.01898193,1.01977539,52.53720474,345.53900146,354.23077393,2,34519201,1487057284
18.442118,0.01525879,0.03814697,-0.06866455,-0.00085449,-0.02136230,1.02221680,47.28348160,350.82785034,352.54394531,2,34519231,1487057284
18.445114,-0.09155273,-0.13732910,-0.09918213,-0.00183105,-0.02270508,1.02001953,47.28348160,350.82785034,352.54394531,2,34519259,1487057284
18.427143,0.06103516,-0.03051758,0.06866455,-0.00122070,-0.02087402,1.01757812,47.28348160,350.82785034,352.54394531,2,34519288,1487057284
18.433132,0.07629395,0.05340576,0.01525879,-0.00122070,-0.02038574,1.02246094,47.28348160,350.82785034,352.54394531,2,34519318,1487057284
18.448109,-0.03051758,-0.03051758,-0.02288818,-0.00006104,-0.02050781,1.02093506,47.28348160,354.35375977,355.91757202,2,34519353,1487057284
18.445114,-0.08392334,0.02288818,-0.07629395,0.00109863,-0.02105713,1.02203369,47.28348160,354.35375977,355.91757202,2,34519383,1487057284
18.442118,-0.05340576,-0.11444092,0.06103516,-0.00128174,-0.01995850,1.02313232,47.28348160,354.35375977,355.91757202,2,34519412,1487057284
18.433132,0.03814697,0.01525879,-0.06866455,-0.00189209,-0.02117920,1.01745605,47.28348160,354.35375977,355.91757202,2,34519441,1487057284
18.427143,-0.08392334,-0.08392334,-0.02288818,-0.00061035,-0.02020264,1.02160645,59.54216385,356.11672974,354.23077393,2,34519470,1487057284
18.454100,-0.00762939,0.06103516,-0.05340576,0.00024414,-0.02270508,1.02178955,59.54216385,356.11672974,354.23077393,2,34519500,1487057284
18.430138,0.03051758,-0.11444092,-0.10681152,-0.00134277,-0.02197266,1.01849365,50.78596115,347.30194092,355.91757202,2,34519702,1487057284
18.436129,-0.08392334,-0.00762939,0.01525879,-0.00170898,-0.02111816,1.02221680,43.78100204,350.82785034,332.30218506,2,34519742,1487057284
18.436129,-0.13732910,0.04577637,-0.03814697,0.00006104,-0.01983643,1.02276611,43.78100204,350.82785034,332.30218506,2,34519772,1487057284
18.415161,0.00762939,-0.06866455,-0.01525879,-0.00335693,-0.02075195,1.02160645,43.78100204,350.82785034,332.30218506,2,34519801,1487057284
18.442118,-0.09155273,-0.03814697,-0.06103516,-0.00201416,-0.02191162,1.01739502,43.78100204,350.82785034,332.30218506,2,34519830,1487057284
18.445114,-0.10681152,-0.01525879,-0.04577637,-0.00164795,-0.02087402,1.02154541,64.79588318,347.30194092,349.17031860,2,34519859,1487057284
18.442118,-0.09155273,0.00000000,-0.00762939,0.00054932,-0.02288818,1.02124023,64.79588318,347.30194092,349.17031860,2,34519889,1487057284
18.457094,-0.21362305,-0.07629395,-0.01525879,-0.00128174,-0.02099609,1.01708984,64.79588318,347.30194092,349.17031860,2,34519918,1487057284
18.436129,-0.06866455,0.02288818,0.00000000,-0.00109863,-0.02136230,1.02337646,64.79588318,347.30194092,349.17031860,2,34519947,1487057284
18.436129,-0.03814697,0.01525879,-0.01525879,-0.00183105,-0.02252197,1.02648926,66.54712677,345.53900146,360.97802734,2,34519977,1487057284
18.460089,-0.02288818,0.03814697,-0.00762939,-0.00201416,-0.02154541,1.02416992,66.54712677,345.53900146,360.97802734,2,34520007,1487057284
18.442118,-0.09918213,0.00762939,0.10681152,-0.00177002,-0.02215576,1.01861572,66.54712677,345.53900146,360.97802734,2,34520035,1487057285
18.433132,-0.06866455,-0.05340576,-0.07629395,-0.00048828,-0.02148438,1.02325439,66.54712677,345.53900146,360.97802734,2,34520069,1487057285
18.433132,-0.09155273,0.00762939,0.13732910,-0.00061035,-0.01995850,1.01892090,43.78100204,350.82785034,345.79669189,2,34520099,1487057285
18.445114,-0.01525879,-0.06103516,-0.02288818,-0.00140381,-0.02270508,1.02038574,43.78100204,350.82785034,345.79669189,2,34520129,1487057285
18.442118,0.00762939,0.05340576,0.00762939,-0.00158691,-0.02038574,1.02197266,43.78100204,350.82785034,345.79669189,2,34520166,1487057285
18.454100,-0.06103516,0.02288818,0.00762939,-0.00115967,-0.02081299,1.01757812,43.78100204,350.82785034,345.79669189,2,34520195,1487057285
18.439123,-0.04577637,0.03814697,-0.07629395,-0.00207520,-0.01989746,1.02502441,40.27852249,340.25012207,349.17031860,2,34520224,1487057285
18.448109,-0.03814697,-0.10681152,0.06866455,-0.00042725,-0.02062988,1.01989746,40.27852249,340.25012207,349.17031860,2,34520254,1487057285
18.436129,-0.09918213,-0.02288818,0.03814697,-0.00097656,-0.02355957,1.01965332,40.27852249,340.25012207,349.17031860,2,34520283,1487057285
18.448109,-0.03051758,0.03051758,-0.03051758,-0.00219727,-0.01983643,1.02258301,40.27852249,340.25012207,349.17031860,2,34520312,1487057285
18.427143,-0.00762939,-0.02288818,-0.06103516,-0.00061035,-0.02038574,1.02301025,52.53720474,349.06491089,344.10989380,2,34520342,1487057285
18.445114,-0.05340576,0.02288818,0.00000000,-0.00238037,-0.02081299,1.02154541,52.53720474,349.06491089,344.10989380,2,34520372,1487057285
18.442118,-0.00762939,-0.03814697,0.07629395,-0.00030518,-0.02203369,1.01910400,52.53720474,349.06491089,344.10989380,2,34520401,1487057285
18.442118,-0.04577637,0.00000000,0.09918213,-0.00109863,-0.02160645,1.01910400,52.53720474,349.06491089,344.10989380,2,34520430,1487057285
18.448109,-0.06866455,0.03051758,0.06866455,-0.00262451,-0.01959229,1.02099609,52.53720474,349.06491089,344.10989380,2,34520459,1487057285
18.442118,0.00000000,0.00000000,0.03051758,-0.00097656,-0.02032471,1.02337646,54.28844452,357.87966919,359.29119873,2,34520488,1487057285
18.433132,-0.03814697,0.00762939,-0.04577637,-0.00115967,-0.02130127,1.01831055,54.28844452,357.87966919,359.29119873,2,34520518,1487057285
18.442118,-0.11444092,0.01525879,0.00762939,-0.00103760,-0.02136230,1.01922607,54.28844452,357.87966919,359.29119873,2,34520547,1487057285
18.445114,-0.03814697,0.07629395,-0.06103516,-0.00091553,-0.02154541,1.02087402,54.28844452,357.87966919,359.29119873,2,34520576,1487057285
18.463085,-0.01525879,0.01525879,-0.01525879,0.00073242,-0.01916504,1.02301025,56.03968430,349.06491089,347.48352051,2,34520609,1487057285
18.451103,-0.02288818,0.05340576,0.01525879,-0.00103760,-0.02105713,1.02313232,56.03968430,349.06491089,347.48352051,2,34520639,1487057285
18.433132,0.09918213,-0.08392334,0.06103516,0.00073242,-0.02343750,1.02270508,56.03968430,349.06491089,347.48352051,2,34520668,1487057285
18.439123,0.02288818,0.00000000,0.03814697,-0.00195312,-0.02026367,1.02026367,56.03968430,349.06491089,347.48352051,2,34520700,1487057285
18.448109,-0.03814697,-0.09155273,-0.08392334,-0.00030518,-0.02075195,1.02239990,61.29340363,357.87966919,352.54394531,2,34520738,1487057285
18.448109,-0.08392334,-0.06866455,0.00000000,-0.00299072,-0.01965332,1.02331543,61.29340363,357.87966919,352.54394531,2,34520768,1487057285
18.451103,0.02288818,-0.02288818,-0.03051758,0.00061035,-0.02154541,1.02368164,61.29340363,357.87966919,352.54394531,2,34520799,1487057285
18.442118,-0.08392334,0.04577637,0.00762939,-0.00085449,-0.02148438,1.02343750,61.29340363,357.87966919,352.54394531,2,34520828,1487057285
18.454100,-0.02288818,-0.02288818,-0.01525879,-0.00219727,-0.02233887,1.02343750,52.53720474,359.64263916,340.73626709,2,34520857,1487057285
18.448109,-0.18310547,-0.07629395,0.08392334,-0.00091553,-0.02124023,1.02093506,52.53720474,359.64263916,340.73626709,2,34520888,1487057285
18.436129,-0.05340576,0.00762939,0.00762939,-0.00061035,-0.01959229,1.02264404,52.53720474,359.64263916,340.73626709,2,34520919,1487057285
18.451103,0.04577637,-0.12969971,-0.06866455,-0.00170898,-0.02258301,1.02136230,52.53720474,359.64263916,340.73626709,2,34520948,1487057285
18.439123,-0.07629395,-0.02288818,0.07629395,0.00042725,-0.02044678,1.02142334,68.29836273,347.30194092,362.66482544,2,34520977,1487057285
18.439123,-0.12969971,-0.00762939,-0.06103516,-0.00244141,-0.02032471,1.01983643,68.29836273,347.30194092,362.66482544,2,34521008,1487057285
18.427143,-0.03051758,0.06866455,-0.10681152,-0.00012207,-0.02081299,1.02154541,68.29836273,347.30194092,362.66482544,2,34521039,1487057286
18.454100,-0.03814697,-0.05340576,0.00000000,-0.00140381,-0.02014160,1.01843262,68.29836273,347.30194092,362.66482544,2,34521068,1487057286
18.439123,0.03814697,-0.01525879,-0.09155273,-0.00177002,-0.02160645,1.02368164,43.78100204,364.93148804,355.91757202,2,34521097,1487057286
18.439123,-0.06866455,-0.07629395,0.02288818,-0.00091553,-0.02276611,1.01715088,43.78100204,364.93148804,355.91757202,2,34521127,1487057286
18.436129,-0.15258789,-0.10681152,0.03814697,-0.00122070,-0.02154541,1.02166748,43.78100204,364.93148804,355.91757202,2,34521158,1487057286
18.415161,0.06103516,-0.00762939,0.05340576,-0.00244141,-0.02105713,1.02178955,43.78100204,364.93148804,355.91757202,2,34521189,1487057286
18.442118,-0.01525879,0.02288818,-0.06866455,-0.00012207,-0.02130127,1.02465820,63.04464340,359.64263916,350.85714722,2,34521218,1487057286
18.451103,-0.03814697,-0.10681152,0.05340576,-0.00311279,-0.02185059,1.02081299,63.04464340,359.64263916,350.85714722,2,34521248,1487057286
18.448109,-0.01525879,0.02288818,-0.00762939,-0.00097656,-0.02111816,1.02337646,63.04464340,359.64263916,350.85714722,2,34521277,1487057286
18.448109,-0.00762939,-0.00762939,-0.05340576,0.00024414,-0.02239990,1.01831055,63.04464340,359.64263916,350.85714722,2,34521306,1487057286
18.442118,-0.00762939,-0.03051758,0.00762939,-0.00305176,-0.02337646,1.02062988,56.03968430,345.53900146,337.36264038,2,34521335,1487057286
18.451103,0.00000000,-0.02288818,-0.05340576,-0.00024414,-0.02111816,1.02514648,56.03968430,345.53900146,337.36264038,2,34521365,1487057286
18.448109,0.00000000,0.05340576,0.00000000,-0.00152588,-0.02124023,1.02148438,56.03968430,345.53900146,337.36264038,2,34521396,1487057286
18.436129,-0.12969971,0.03051758,-0.05340576,-0.00073242,-0.02032471,1.01995850,56.03968430,345.53900146,337.36264038,2,34521425,1487057286
18.454100,0.04577637,-0.06103516,-0.01525879,-0.00128174,-0.02258301,1.02221680,56.03968430,345.53900146,337.36264038,2,34521454,1487057286
18.451103,-0.09918213,-0.03814697,-0.02288818,-0.00213623,-0.02215576,1.02325439,59.54216385,352.59082031,337.36264038,2,34521483,1487057286
18.463085,-0.00762939,-0.03814697,-0.08392334,-0.00152588,-0.02062988,1.02044678,59.54216385,352.59082031,337.36264038,2,34521514,1487057286
18.463085,-0.00762939,-0.06866455,0.08392334,-0.00024414,-0.02099609,1.01965332,57.79092407,350.82785034,342.42306519,2,34521664,1487057286
18.451103,0.00000000,0.13732910,-0.03814697,-0.00164795,-0.02075195,1.02258301,57.79092407,350.82785034,342.42306519,2,34521699,1487057286
18.454100,-0.02288818,-0.01525879,-0.04577637,-0.00183105,-0.02081299,1.02239990,56.03968430,345.53900146,344.10989380,2,34521728,1487057286
18.451103,-0.00762939,0.02288818,0.00000000,-0.00048828,-0.02233887,1.02343750,56.03968430,345.53900146,344.10989380,2,34521760,1487057286
18.424147,0.00762939,-0.03051758,-0.03814697,-0.00280762,-0.02050781,1.02178955,56.03968430,345.53900146,344.10989380,2,34521789,1487057286
18.445114,-0.03814697,-0.02288818,-0.05340576,-0.00073242,-0.02166748,1.02288818,56.03968430,345.53900146,344.10989380,2,34521818,1487057286
18.460089,-0.00762939,0.00762939,-0.03051758,0.00079346,-0.02172852,1.02178955,64.79588318,347.30194092,352.54394531,2,34521847,1487057286
18.454100,0.02288818,0.04577637,-0.05340576,-0.00036621,-0.02081299,1.02142334,64.79588318,347.30194092,352.54394531,2,34521877,1487057286
18.424147,-0.01525879,0.01525879,-0.00762939,-0.00122070,-0.02185059,1.02130127,64.79588318,347.30194092,352.54394531,2,34521912,1487057286
18.439123,-0.01525879,0.09918213,0.02288818,-0.00036621,-0.02136230,1.02191162,64.79588318,347.30194092,352.54394531,2,34521943,1487057286
18.454100,-0.03051758,0.07629395,-0.03814697,-0.00213623,-0.02276611,1.02673340,50.78596115,350.82785034,349.17031860,2,34521972,1487057286
18.448109,0.02288818,0.00000000,0.01525879,-0.00103760,-0.02191162,1.01953125,50.78596115,350.82785034,349.17031860,2,34522004,1487057286
18.457094,-0.06103516,0.06103516,0.00762939,-0.00030518,-0.02050781,1.01885986,50.78596115,350.82785034,349.17031860,2,34522033,1487057287
18.448109,-0.03814697,0.00000000,0.00000000,-0.00177002,-0.02081299,1.02093506,50.78596115,350.82785034,349.17031860,2,34522063,1487057287
18.430138,0.03051758,0.10681152,0.03814697,-0.00103760,-0.02075195,1.02618408,61.29340363,347.30194092,335.67581177,2,34522092,1487057287
18.436129,-0.12969971,-0.06866455,-0.02288818,0.00006104,-0.02197266,1.01977539,61.29340363,347.30194092,335.67581177,2,34522122,1487057287
18.448109,-0.09155273,-0.09155273,-0.07629395,-0.00109863,-0.02209473,1.02020264,61.29340363,347.30194092,335.67581177,2,34522151,1487057287
18.436129,-0.11444092,0.07629395,0.01525879,-0.00067139,-0.02239990,1.01885986,61.29340363,347.30194092,335.67581177,2,34522181,1487057287
18.436129,-0.07629395,0.09155273,0.03051758,-0.00085449,-0.02239990,1.02313232,56.03968430,349.06491089,354.23077393,2,34522212,1487057287
18.463085,0.00762939,-0.06866455,0.03051758,-0.00054932,-0.02130127,1.02465820,56.03968430,349.06491089,354.23077393,2,34522242,1487057287
18.454100,-0.04577637,-0.05340576,-0.00762939,-0.00006104,-0.02050781,1.02081299,56.03968430,349.06491089,354.23077393,2,34522271,1487057287
18.460089,0.00000000,0.00762939,-0.09155273,0.00006104,-0.02099609,1.02459717,56.03968430,349.06491089,354.23077393,2,34522300,1487057287
18.442118,-0.03814697,0.06866455,0.01525879,-0.00042725,-0.02014160,1.02392578,56.03968430,349.06491089,354.23077393,2,34522329,1487057287
18.430138,0.09918213,0.00000000,-0.04577637,-0.00170898,-0.02136230,1.02276611,57.79092407,357.87966919,349.17031860,2,34522358,1487057287
18.457094,-0.08392334,-0.03051758,0.03814697,-0.00439453,-0.02154541,1.02075195,57.79092407,357.87966919,349.17031860,2,34522389,1487057287
18.427143,-0.00762939,-0.03814697,0.03051758,0.00103760,-0.02124023,1.01934814,57.79092407,357.87966919,349.17031860,2,34522424,1487057287
18.430138,0.01525879,-0.04577637,-0.07629395,-0.00122070,-0.02099609,1.01867676,68.29836273,347.30194092,342.42306519,2,34522551,1487057287
18.445114,0.05340576,0.04577637,-0.00762939,-0.00030518,-0.01965332,1.02191162,54.28844452,354.35375977,349.17031860,2,34522581,1487057287
18.460089,0.04577637,-0.02288818,-0.03051758,-0.00018311,-0.01983643,1.02514648,54.28844452,354.35375977,349.17031860,2,34522611,1487057287
18.439123,0.00762939,0.05340576,-0.03051758,0.00048828,-0.02081299,1.02087402,54.28844452,354.35375977,349.17031860,2,34522639,1487057287
18.442118,-0.02288818,-0.06866455,-0.01525879,-0.00146484,-0.02050781,1.02380371,54.28844452,354.35375977,349.17031860,2,34522668,1487057287
18.436129,-0.12969971,-0.04577637,-0.03814697,-0.00158691,-0.02178955,1.02026367,54.28844452,354.35375977,349.17031860,2,34522697,1487057287
18.442118,-0.01525879,0.04577637,0.00762939,-0.00152588,-0.02276611,1.02233887,59.54216385,349.06491089,347.48352051,2,34522731,1487057287
18.445114,-0.09155273,-0.09918213,-0.11444092,0.00054932,-0.02233887,1.02386475,59.54216385,349.06491089,347.48352051,2,34522762,1487057287
18.445114,0.00762939,-0.08392334,0.04577637,0.00018311,-0.02221680,1.02136230,59.54216385,349.06491089,347.48352051,2,34522791,1487057287
18.451103,-0.06866455,-0.00762939,0.03051758,0.00000000,-0.02203369,1.01947021,59.54216385,349.06491089,347.48352051,2,34522820,1487057287
18.469074,-0.09155273,-0.00762939,-0.02288818,-0.00158691,-0.01934814,1.02337646,52.53720474,352.59082031,347.48352051,2,34522851,1487057287
18.442118,-0.03814697,-0.03051758,-0.07629395,0.00006104,-0.02056885,1.01983643,52.53720474,352.59082031,347.48352051,2,34522882,1487057287
18.430138,-0.02288818,-0.10681152,-0.03814697,-0.00091553,-0.02136230,1.01983643,52.53720474,352.59082031,347.48352051,2,34522911,1487057287
18.454100,-0.03051758,-0.01525879,0.03814697,-0.00170898,-0.02191162,1.02203369,52.53720474,352.59082031,347.48352051,2,34522940,1487057287
18.448109,0.05340576,-0.10681152,0.04577637,0.00054932,-0.02160645,1.02490234,54.28844452,350.82785034,345.79669189,2,34522972,1487057287
18.427143,0.03051758,0.03051758,0.03814697,-0.00030518,-0.02075195,1.02282715,54.28844452,350.82785034,345.79669189,2,34523004,1487057287
18.439123,-0.05340576,0.08392334,-0.02288818,-0.00054932,-0.02087402,1.01861572,54.28844452,350.82785034,345.79669189,2,34523047,1487057288
18.448109,0.02288818,0.02288818,-0.09155273,-0.00164795,-0.02020264,1.02185059,54.28844452,350.82785034,345.79669189,2,34523076,1487057288
18.454100,-0.05340576,-0.12207031,-0.09155273,-0.00012207,-0.02185059,1.02008057,59.54216385,345.53900146,357.60440063,2,34523105,1487057288
18.427143,0.03051758,0.03051758,0.00762939,-0.00024414,-0.02160645,1.01910400,59.54216385,345.53900146,357.60440063,2,34523137,1487057288
18.439123,-0.11444092,0.06103516,-0.00762939,-0.00128174,-0.02032471,1.02307129,59.54216385,345.53900146,357.60440063,2,34523166,1487057288
18.448109,-0.07629395,-0.01525879,0.00762939,0.00012207,-0.02117920,1.02233887,59.54216385,345.53900146,357.60440063,2,34523195,1487057288
18.451103,-0.04577637,-0.07629395,0.09918213,-0.00189209,-0.02032471,1.02056885,57.79092407,354.35375977,342.42306519,2,34523224,1487057288
18.448109,-0.06866455,-0.05340576,-0.00762939,-0.00256348,-0.02264404,1.02197266,57.79092407,354.35375977,342.42306519,2,34523257,1487057288
18.457094,-0.03051758,-0.02288818,0.07629395,0.00054932,-0.02215576,1.02111816,57.79092407,354.35375977,342.42306519,2,34523286,1487057288
18.442118,0.03814697,0.01525879,0.03814697,-0.00109863,-0.02160645,1.01953125,57.79092407,354.35375977,342.42306519,2,34523315,1487057288
18.436129,-0.03814697,0.01525879,0.00762939,-0.00079346,-0.02307129,1.02301025,59.54216385,359.64263916,347.48352051,2,34523346,1487057288
18.463085,0.00762939,-0.11444092,-0.03051758,-0.00323486,-0.02001953,1.01782227,59.54216385,359.64263916,347.48352051,2,34523376,1487057288
18.454100,-0.01525879,0.01525879,-0.02288818,-0.00036621,-0.02282715,1.02142334,59.54216385,359.64263916,347.48352051,2,34523405,1487057288
18.421152,-0.09155273,0.05340576,-0.00762939,-0.00177002,-0.02008057,1.02093506,59.54216385,359.64263916,347.48352051,2,34523439,1487057288
18.448109,-0.03814697,0.07629395,0.03814697,-0.00109863,-0.02062988,1.02398682,63.04464340,352.59082031,350.85714722,2,34523468,1487057288
18.454100,-0.01525879,0.02288818,-0.00762939,-0.00115967,-0.02075195,1.02258301,63.04464340,352.59082031,350.85714722,2,34523500,1487057288
18.448109,-0.07629395,0.07629395,-0.01525879,-0.00012207,-0.01898193,1.02270508,63.04464340,352.59082031,350.85714722,2,34523530,1487057288
18.427143,-0.03051758,0.00000000,0.00762939,0.00012207,-0.02124023,1.01989746,63.04464340,352.59082031,350.85714722,2,34523560,1487057288
18.460089,-0.01525879,0.00762939,0.02288818,-0.00085449,-0.02050781,1.02575684,49.03472137,349.06491089,350.85714722,2,34523589,1487057288
18.436129,0.07629395,-0.03814697,-0.01525879,-0.00067139,-0.02008057,1.02191162,49.03472137,349.06491089,350.85714722,2,34523619,1487057288
18.442118,-0.07629395,0.02288818,-0.04577637,-0.00231934,-0.01983643,1.02331543,49.03472137,349.06491089,350.85714722,2,34523654,1487057288
18.448109,-0.17547607,-0.01525879,0.07629395,-0.00152588,-0.01928711,1.02233887,49.03472137,349.06491089,350.85714722,2,34523683,1487057288
18.463085,0.01525879,0.00000000,-0.02288818,-0.00207520,-0.02148438,1.02209473,52.53720474,356.11672974,347.48352051,2,34523712,1487057288
18.448109,0.06866455,-0.04577637,0.03814697,-0.00189209,-0.02044678,1.02465820,52.53720474,356.11672974,347.48352051,2,34523742,1487057288
18.454100,0.00762939,0.01525879,0.00762939,-0.00030518,-0.02233887,1.02239990,52.53720474,356.11672974,347.48352051,2,34523772,1487057288
18.415161,-0.00762939,-0.00762939,0.00000000,-0.00042725,-0.02142334,1.02209473,52.53720474,356.11672974,347.48352051,2,34523803,1487057288
18.448109,0.01525879,0.03814697,-0.04577637,-0.00134277,-0.02001953,1.02362061,50.78596115,347.30194092,349.17031860,2,34523832,1487057288
18.442118,-0.03051758,0.06103516,-0.03814697,0.00018311,-0.02069092,1.01873779,50.78596115,347.30194092,349.17031860,2,34523863,1487057288
18.445114,-0.13732910,0.04577637,-0.07629395,-0.00091553,-0.02032471,1.02160645,50.78596115,347.30194092,349.17031860,2,34523892,1487057288
18.430138,-0.08392334,-0.03814697,0.00000000,0.00030518,-0.02185059,1.01971436,50.78596115,347.30194092,349.17031860,2,34523922,1487057288
18.439123,-0.06866455,-0.04577637,-0.03814697,-0.00079346,-0.02038574,1.02496338,50.78596115,354.35375977,352.54394531,2,34523953,1487057288
18.454100,-0.02288818,-0.03051758,0.05340576,-0.00042725,-0.02026367,1.02172852,50.78596115,354.35375977,352.54394531,2,34523983,1487057288
18.457094,-0.09155273,-0.00762939,0.02288818,-0.00238037,-0.02069092,1.01989746,50.78596115,354.35375977,352.54394531,2,34524012,1487057288
18.436129,0.10681152,-0.05340576,0.02288818,-0.00042725,-0.02142334,1.02337646,50.78596115,354.35375977,352.54394531,2,34524041,1487057289
18.439123,-0.08392334,-0.00762939,0.00762939,-0.00109863,-0.02093506,1.02099609,50.78596115,354.35375977,352.54394531,2,34524070,1487057289
18.463085,-0.04577637,-0.09155273,-0.01525879,-0.00140381,-0.02221680,1.02343750,63.04464340,349.06491089,340.73626709,2,34524100,1487057289
18.439123,-0.09155273,-0.03814697,-0.01525879,-0.00225830,-0.02130127,1.01989746,63.04464340,349.06491089,340.73626709,2,34524131,1487057289
18.427143,-0.01525879,-0.03814697,-0.11444092,-0.00115967,-0.02288818,1.02026367,63.04464340,349.06491089,340.73626709,2,34524165,1487057289
18.424147,-0.14495850,-0.09155273,0.06103516,-0.00012207,-0.02252197,1.02130127,50.78596115,350.82785034,339.04943848,2,34524203,1487057289
18.436129,-0.07629395,-0.01525879,0.04577637,-0.00097656,-0.02026367,1.02008057,50.78596115,350.82785034,339.04943848,2,34524233,1487057289
18.442118,-0.04577637,-0.08392334,-0.05340576,-0.00006104,-0.02136230,1.01599121,50.78596115,350.82785034,339.04943848,2,34524267,1487057289
18.451103,0.00762939,0.00000000,0.08392334,-0.00256348,-0.01971436,1.02178955,50.78596115,350.82785034,339.04943848,2,34524298,1487057289
18.445114,-0.10681152,0.03814697,0.03051758,-0.00274658,-0.02221680,1.02252197,59.54216385,349.06491089,354.23077393,2,34524338,1487057289
18.460089,0.04577637,-0.08392334,-0.03814697,-0.00091553,-0.02142334,1.02294922,59.54216385,349.06491089,354.23077393,2,34524370,1487057289
18.424147,-0.10681152,-0.08392334,0.00762939,-0.00225830,-0.02276611,1.02331543,59.54216385,349.06491089,354.23077393,2,34524437,1487057289
18.448109,0.01525879,0.08392334,-0.07629395,0.00091553,-0.01995850,1.02239990,50.78596115,357.87966919,345.79669189,2,34524477,1487057289
18.430138,-0.10681152,0.00000000,0.03814697,-0.00097656,-0.02221680,1.02319336,50.78596115,357.87966919,345.79669189,2,34524513,1487057289
18.436129,-0.08392334,-0.09918213,-0.08392334,-0.00164795,-0.01947021,1.02111816,50.78596115,357.87966919,345.79669189,2,34524542,1487057289
18.439123,0.10681152,0.03814697,-0.07629395,-0.00292969,-0.01940918,1.02307129,59.54216385,359.64263916,333.98901367,2,34524575,1487057289
18.454100,-0.05340576,-0.02288818,-0.00762939,-0.00012207,-0.02087402,1.02331543,59.54216385,359.64263916,333.98901367,2,34524605,1487057289
18.436129,-0.09918213,-0.06103516,-0.06103516,-0.00042725,-0.02093506,1.02008057,59.54216385,359.64263916,333.98901367,2,34524634,1487057289
18.451103,-0.06866455,-0.04577637,-0.03051758,-0.00067139,-0.02136230,1.01892090,59.54216385,359.64263916,333.98901367,2,34524663,1487057289
18.418158,-0.07629395,-0.03051758,0.04577637,-0.00109863,-0.01916504,1.01818848,59.54216385,359.64263916,333.98901367,2,34524694,1487057289
18.430138,-0.09155273,-0.09918213,0.11444092,-0.00268555,-0.01983643,1.02386475,43.78100204,354.35375977,359.29119873,2,34524725,1487057289
18.430138,-0.09155273,0.00762939,0.03051758,-0.00054932,-0.02221680,1.02270508,43.78100204,354.35375977,359.29119873,2,34524755,1487057289
18.463085,-0.08392334,-0.08392334,-0.06866455,0.00079346,-0.02160645,1.02099609,43.78100204,354.35375977,359.29119873,2,34524784,1487057289
18.454100,-0.12207031,0.00000000,0.00000000,-0.00225830,-0.02093506,1.02069092,43.78100204,354.35375977,359.29119873,2,34524813,1487057289
18.430138,-0.01525879,-0.02288818,-0.09918213,-0.00183105,-0.01928711,1.02038574,52.53720474,359.64263916,357.60440063,2,34524843,1487057289
18.439123,0.01525879,0.04577637,0.00000000,-0.00042725,-0.02160645,1.02301025,52.53720474,359.64263916,357.60440063,2,34524875,1487057289
18.436129,-0.09155273,-0.06866455,-0.06103516,-0.00054932,-0.02239990,1.02026367,52.53720474,359.64263916,357.60440063,2,34524904,1487057289
18.460089,-0.19836426,0.03051758,0.01525879,-0.00073242,-0.02191162,1.01965332,52.53720474,359.64263916,357.60440063,2,34524933,1487057289
18.448109,0.05340576,-0.05340576,0.00000000,-0.00030518,-0.01965332,1.02587891,40.27852249,350.82785034,342.42306519,2,34524963,1487057289
18.460089,-0.08392334,-0.00762939,-0.04577637,0.00024414,-0.01971436,1.01916504,40.27852249,350.82785034,342.42306519,2,34524993,1487057289
18.457094,-0.09155273,0.03051758,-0.02288818,-0.00134277,-0.02069092,1.02093506,40.27852249,350.82785034,342.42306519,2,34525022,1487057289
18.421152,0.03814697,-0.03814697,0.05340576,-0.00079346,-0.02398682,1.02258301,40.27852249,350.82785034,342.42306519,2,34525052,1487057290
18.439123,-0.12207031,0.03051758,0.03814697,-0.00085449,-0.01940918,1.02691650,47.28348160,357.87966919,349.17031860,2,34525081,1487057290
18.448109,-0.06866455,-0.06103516,-0.00762939,-0.00048828,-0.02136230,1.02532959,47.28348160,357.87966919,349.17031860,2,34525111,1487057290
18.442118,-0.06103516,-0.01525879,-0.09155273,0.00085449,-0.01928711,1.02227783,47.28348160,357.87966919,349.17031860,2,34525140,1487057290
18.439123,-0.16021729,-0.11444092,0.09155273,-0.00054932,-0.01989746,1.02197266,47.28348160,357.87966919,349.17031860,2,34525169,1487057290
18.433132,-0.09155273,-0.06866455,-0.05340576,0.00030518,-0.02239990,1.02081299,59.54216385,352.59082031,333.98901367,2,34525198,1487057290
18.448109,-0.12969971,0.00000000,-0.00762939,-0.00146484,-0.02044678,1.01940918,59.54216385,352.59082031,333.98901367,2,34525228,1487057290
18.439123,-0.02288818,0.00000000,-0.07629395,-0.00274658,-0.02172852,1.02313232,59.54216385,352.59082031,333.98901367,2,34525257,1487057290
18.427143,-0.04577637,0.04577637,0.00762939,0.00030518,-0.01879883,1.02203369,59.54216385,352.59082031,333.98901367,2,34525291,1487057290
18.439123,-0.01525879,-0.06866455,-0.03051758,0.00097656,-0.02209473,1.02154541,54.28844452,357.87966919,335.67581177,2,34525318,1487057290
18.421152,-0.09918213,-0.04577637,-0.02288818,-0.00140381,-0.02087402,1.02227783,54.28844452,357.87966919,335.67581177,2,34525348,1487057290
18.433132,-0.21362305,-0.12207031,0.02288818,-0.00146484,-0.02001953,1.02044678,54.28844452,357.87966919,335.67581177,2,34525377,1487057290
18.439123,0.03051758,-0.02288818,-0.10681152,-0.00018311,-0.02270508,1.01977539,54.28844452,357.87966919,335.67581177,2,34525407,1487057290
18.436129,0.02288818,-0.12969971,0.00762939,-0.00122070,-0.02148438,1.02099609,54.28844452,357.87966919,335.67581177,2,34525436,1487057290
18.442118,-0.01525879,-0.06103516,0.01525879,-0.00250244,-0.02001953,1.02215576,54.28844452,350.82785034,355.91757202,2,34525465,1487057290
18.451103,-0.06103516,0.02288818,0.03814697,-0.00115967,-0.01947021,1.01867676,54.28844452,350.82785034,355.91757202,2,34525496,1487057290
18.448109,-0.07629395,-0.02288818,0.00000000,-0.00213623,-0.02178955,1.02215576,54.28844452,350.82785034,355.91757202,2,34525527,1487057290
18.439123,-0.01525879,0.02288818,0.02288818,-0.00183105,-0.02160645,1.02026367,54.28844452,350.82785034,355.91757202,2,34525556,1487057290
18.418158,-0.19836426,0.04577637,0.00000000,-0.00158691,-0.02233887,1.02001953,54.28844452,361.40557861,349.17031860,2,34525585,1487057290
18.442118,-0.06866455,0.04577637,-0.03051758,0.00006104,-0.02215576,1.01892090,54.28844452,361.40557861,349.17031860,2,34525616,1487057290
18.460089,0.03814697,-0.02288818,-0.03051758,0.00061035,-0.01983643,1.02270508,54.28844452,361.40557861,349.17031860,2,34525647,1487057290
18.433132,-0.03814697,-0.00762939,-0.02288818,-0.00097656,-0.02246094,1.02038574,54.28844452,361.40557861,349.17031860,2,34525676,1487057290
18.427143,-0.09155273,-0.03051758,0.04577637,-0.00067139,-0.02233887,1.02197266,43.78100204,368.45739746,345.79669189,2,34525705,1487057290
18.436129,-0.03051758,-0.01525879,-0.05340576,-0.00030518,-0.01934814,1.02368164,43.78100204,368.45739746,345.79669189,2,34525735,1487057290
18.448109,0.02288818,-0.04577637,0.02288818,-0.00085449,-0.02142334,1.02020264,43.78100204,368.45739746,345.79669189,2,34525765,1487057290
18.427143,-0.03051758,-0.03814697,-0.05340576,-0.00085449,-0.02044678,1.02209473,43.78100204,368.45739746,345.79669189,2,34525798,1487057290
18.436129,-0.01525879,-0.00762939,0.00000000,-0.00097656,-0.01873779,1.02233887,54.28844452,336.72421265,352.54394531,2,34525835,1487057290
18.436129,-0.12207031,-0.00762939,-0.00762939,-0.00183105,-0.02209473,1.02294922,54.28844452,336.72421265,352.54394531,2,34525864,1487057290
18.430138,-0.09155273,-0.02288818,-0.01525879,0.00000000,-0.02160645,1.02185059,54.28844452,336.72421265,352.54394531,2,34525895,1487057290
18.418158,-0.13732910,-0.01525879,-0.06866455,-0.00085449,-0.01983643,1.02185059,54.28844452,336.72421265,352.54394531,2,34525924,1487057290
18.436129,-0.00762939,-0.01525879,-0.04577637,-0.00097656,-0.02136230,1.02166748,47.28348160,347.30194092,339.04943848,2,34525954,1487057290
18.433132,0.00762939,-0.02288818,-0.03814697,-0.00152588,-0.02178955,1.01959229,47.28348160,347.30194092,339.04943848,2,34525984,1487057290
18.439123,0.00000000,-0.12207031,0.02288818,-0.00177002,-0.02142334,1.02282715,47.28348160,347.30194092,339.04943848,2,34526013,1487057290
18.436129,0.00000000,0.03814697,-0.06103516,0.00067139,-0.02148438,1.02014160,47.28348160,347.30194092,339.04943848,2,34526042,1487057291
18.460089,-0.07629395,0.07629395,-0.02288818,0.00054932,-0.02459717,1.02374268,66.54712677,359.64263916,344.10989380,2,34526072,1487057291
18.448109,0.10681152,0.01525879,-0.06866455,0.00048828,-0.02069092,1.01788330,66.54712677,359.64263916,344.10989380,2,34526105,1487057291
18.448109,-0.04577637,-0.03814697,-0.00762939,-0.00262451,-0.02117920,1.02117920,66.54712677,359.64263916,344.10989380,2,34526136,1487057291
18.436129,-0.03051758,-0.09155273,-0.00762939,-0.00158691,-0.02337646,1.02276611,66.54712677,359.64263916,344.10989380,2,34526165,1487057291
18.418158,-0.01525879,0.00762939,-0.03814697,-0.00219727,-0.02136230,1.02337646,57.79092407,347.30194092,345.79669189,2,34526194,1487057291
18.451103,-0.05340576,-0.08392334,-0.00762939,-0.00018311,-0.02020264,1.02423096,57.79092407,347.30194092,345.79669189,2,34526223,1487057291
18.448109,-0.11444092,0.01525879,-0.02288818,-0.00146484,-0.02111816,1.02331543,57.79092407,347.30194092,345.79669189,2,34526252,1487057291
18.469074,-0.03814697,0.02288818,0.05340576,-0.00109863,-0.01940918,1.01922607,57.79092407,347.30194092,345.79669189,2,34526281,1487057291
18.418158,-0.13732910,0.00000000,-0.06866455,0.00073242,-0.02282715,1.02178955,59.54216385,349.06491089,340.73626709,2,34526316,1487057291
18.439123,-0.15258789,-0.06103516,0.02288818,-0.00097656,-0.01983643,1.02203369,59.54216385,349.06491089,340.73626709,2,34526350,1487057291
18.436129,-0.13732910,-0.07629395,-0.08392334,-0.00158691,-0.02038574,1.01971436,59.54216385,349.06491089,340.73626709,2,34526380,1487057291
18.451103,-0.09918213,0.07629395,0.00762939,-0.00177002,-0.02203369,1.02435303,59.54216385,349.06491089,340.73626709,2,34526411,1487057291
18.448109,-0.10681152,-0.02288818,-0.01525879,-0.00170898,-0.02197266,1.01922607,61.29340363,357.87966919,345.79669189,2,34526440,1487057291
18.445114,-0.06866455,0.01525879,-0.01525879,0.00000000,-0.02099609,1.02081299,61.29340363,357.87966919,345.79669189,2,34526469,1487057291
18.451103,-0.08392334,-0.06103516,0.00000000,-0.00073242,-0.02081299,1.02148438,61.29340363,357.87966919,345.79669189,2,34526498,1487057291
18.433132,-0.09155273,-0.00762939,0.06866455,-0.00213623,-0.02239990,1.02056885,61.29340363,357.87966919,345.79669189,2,34526527,1487057291
18.433132,-0.02288818,-0.07629395,0.04577637,-0.00085449,-0.02215576,1.02362061,61.29340363,357.87966919,345.79669189,2,34526558,1487057291
18.445114,0.06103516,-0.05340576,-0.11444092,-0.00091553,-0.02117920,1.02392578,45.53224182,356.11672974,340.73626709,2,34526587,1487057291
18.460089,-0.10681152,-0.04577637,-0.03814697,-0.00213623,-0.02337646,1.02301025,45.53224182,356.11672974,340.73626709,2,34526617,1487057291
18.460089,0.00000000,-0.01525879,-0.01525879,-0.00170898,-0.02099609,1.02404785,45.53224182,356.11672974,340.73626709,2,34526646,1487057291
18.481056,-0.08392334,0.03814697,-0.03051758,-0.00091553,-0.02087402,1.02185059,45.53224182,356.11672974,340.73626709,2,34526675,1487057291
18.430138,-0.00762939,-0.00762939,0.00000000,-0.00024414,-0.02099609,1.02661133,54.28844452,364.93148804,355.91757202,2,34526704,1487057291
18.445114,-0.02288818,0.03051758,0.00000000,-0.00225830,-0.02099609,1.01953125,54.28844452,364.93148804,355.91757202,2,34526734,1487057291
18.430138,0.00762939,0.00000000,-0.00762939,-0.00201416,-0.02166748,1.02087402,54.28844452,364.93148804,355.91757202,2,34526763,1487057291
18.454100,-0.19836426,-0.02288818,-0.03814697,-0.00201416,-0.01904297,1.01971436,54.28844452,364.93148804,355.91757202,2,34526793,1487057291
18.439123,0.02288818,-0.01525879,-0.11444092,0.00000000,-0.02197266,1.02185059,63.04464340,338.48718262,344.10989380,2,34526827,1487057291
18.448109,-0.04577637,-0.03051758,-0.08392334,0.00073242,-0.02197266,1.02520752,63.04464340,338.48718262,344.10989380,2,34526858,1487057291
18.442118,-0.09918213,-0.12969971,-0.00762939,-0.00103760,-0.02087402,1.01922607,63.04464340,338.48718262,344.10989380,2,34526891,1487057291
18.448109,-0.08392334,-0.02288818,-0.01525879,-0.00183105,-0.02081299,1.02276611,63.04464340,338.48718262,344.10989380,2,34526923,1487057291
18.451103,0.01525879,-0.05340576,-0.03814697,-0.00091553,-0.02117920,1.02337646,49.03472137,349.06491089,354.23077393,2,34526952,1487057291
18.460089,-0.10681152,-0.06866455,-0.03051758,-0.00030518,-0.02227783,1.02001953,49.03472137,349.06491089,354.23077393,2,34526982,1487057291
18.451103,-0.16021729,-0.02288818,0.01525879,-0.00262451,-0.02136230,1.01843262,49.03472137,349.06491089,354.23077393,2,34527011,1487057291
18.448109,0.00000000,-0.15258789,0.01525879,0.00048828,-0.02075195,1.02191162,49.03472137,349.06491089,354.23077393,2,34527041,1487057292
18.436129,0.02288818,-0.03051758,-0.01525879,-0.00061035,-0.02093506,1.02111816,54.28844452,350.82785034,339.04943848,2,34527070,1487057292
18.421152,0.00762939,-0.00762939,-0.06866455,-0.00164795,-0.02191162,1.01995850,54.28844452,350.82785034,339.04943848,2,34527100,1487057292
18.439123,-0.15258789,0.09918213,0.00000000,-0.00134277,-0.02349854,1.02154541,54.28844452,350.82785034,339.04943848,2,34527134,1487057292
18.436129,-0.02288818,-0.03051758,0.00000000,-0.00244141,-0.02050781,1.02301025,54.28844452,350.82785034,339.04943848,2,34527165,1487057292
18.442118,0.02288818,0.08392334,0.06866455,0.00036621,-0.02148438,1.02215576,43.78100204,371.98330688,342.42306519,2,34527194,1487057292
18.457094,-0.06103516,0.07629395,-0.07629395,-0.00195312,-0.02038574,1.02386475,43.78100204,371.98330688,342.42306519,2,34527237,1487057292
18.436129,-0.09918213,-0.01525879,-0.12969971,-0.00164795,-0.02282715,1.01977539,43.78100204,371.98330688,342.42306519,2,34527280,1487057292
18.427143,-0.02288818,-0.03051758,-0.02288818,-0.00158691,-0.02160645,1.02001953,43.78100204,371.98330688,342.42306519,2,34527309,1487057292
18.460089,-0.09155273,0.03814697,0.00762939,-0.00299072,-0.02032471,1.02014160,45.53224182,359.64263916,347.48352051,2,34527340,1487057292
18.448109,-0.12969971,0.05340576,0.00000000,-0.00097656,-0.02111816,1.02008057,45.53224182,359.64263916,347.48352051,2,34527370,1487057292
18.460089,-0.07629395,-0.06103516,-0.00762939,-0.00030518,-0.02203369,1.02410889,45.53224182,359.64263916,347.48352051,2,34527399,1487057292
18.451103,-0.03814697,-0.02288818,-0.04577637,-0.00073242,-0.02185059,1.01727295,45.53224182,359.64263916,347.48352051,2,34527428,1487057292
18.433132,-0.09155273,0.03051758,0.02288818,0.00061035,-0.02160645,1.02160645,43.78100204,371.98330688,335.67581177,2,34527459,1487057292
18.445114,0.06866455,-0.00762939,0.03051758,-0.00109863,-0.02062988,1.01867676,43.78100204,371.98330688,335.67581177,2,34527490,1487057292
18.442118,-0.06103516,-0.03814697,-0.01525879,0.00000000,-0.02044678,1.02227783,43.78100204,371.98330688,335.67581177,2,34527519,1487057292
18.439123,0.03051758,0.00000000,0.00000000,-0.00073242,-0.02001953,1.01910400,43.78100204,371.98330688,335.67581177,2,34527551,1487057292
18.445114,-0.12207031,-0.10681152,-0.03051758,-0.00006104,-0.02069092,1.02355957,50.78596115,357.87966919,339.04943848,2,34527580,1487057292
18.454100,-0.11444092,0.00762939,-0.02288818,-0.00115967,-0.02374268,1.02093506,50.78596115,357.87966919,339.04943848,2,34527610,1487057292
18.451103,-0.10681152,0.07629395,-0.06103516,-0.00177002,-0.02081299,1.02435303,50.78596115,357.87966919,339.04943848,2,34527641,1487057292
18.454100,-0.06866455,0.10681152,0.00762939,-0.00128174,-0.02081299,1.02325439,50.78596115,357.87966919,339.04943848,2,34527672,1487057292
18.430138,-0.06103516,-0.06103516,-0.02288818,-0.00231934,-0.01995850,1.02307129,61.29340363,350.82785034,342.42306519,2,34527701,1487057292
18.469074,0.04577637,0.06103516,0.01525879,0.00085449,-0.02117920,1.01837158,61.29340363,350.82785034,342.42306519,2,34527731,1487057292
18.445114,-0.06103516,0.02288818,0.00000000,-0.00097656,-0.02209473,1.02435303,61.29340363,350.82785034,342.42306519,2,34527759,1487057292
18.472071,0.03814697,-0.00762939,0.01525879,-0.00164795,-0.02172852,1.01739502,61.29340363,350.82785034,342.42306519,2,34527788,1487057292
18.460089,-0.16021729,-0.06866455,-0.02288818,-0.00134277,-0.01983643,1.02252197,63.04464340,345.53900146,354.23077393,2,34527817,1487057292
18.445114,-0.09155273,-0.06103516,0.03814697,-0.00097656,-0.02105713,1.02215576,63.04464340,345.53900146,354.23077393,2,34527847,1487057292
18.439123,-0.12207031,0.06866455,0.00000000,-0.00097656,-0.02264404,1.02191162,63.04464340,345.53900146,354.23077393,2,34527876,1487057292
18.421152,-0.08392334,0.00762939,-0.06866455,-0.00164795,-0.01977539,1.02368164,63.04464340,345.53900146,354.23077393,2,34527905,1487057292
18.430138,-0.03051758,-0.03814697,0.00000000,-0.00006104,-0.02008057,1.02044678,54.28844452,361.40557861,335.67581177,2,34527934,1487057292
18.442118,-0.03814697,0.00762939,-0.04577637,-0.00152588,-0.02178955,1.02221680,54.28844452,361.40557861,335.67581177,2,34527964,1487057292
18.457094,-0.08392334,-0.03051758,0.00762939,-0.00097656,-0.02209473,1.02233887,54.28844452,361.40557861,335.67581177,2,34527993,1487057292
18.454100,0.01525879,-0.06103516,-0.09155273,0.00097656,-0.02148438,1.02136230,54.28844452,361.40557861,335.67581177,2,34528022,1487057292
18.451103,-0.13732910,0.03814697,0.04577637,-0.00122070,-0.01965332,1.02130127,54.28844452,361.40557861,335.67581177,2,34528056,1487057293
18.448109,-0.13732910,-0.02288818,-0.13732910,-0.00036621,-0.02105713,1.02197266,43.78100204,347.30194092,355.91757202,2,34528087,1487057293
18.433132,-0.10681152,0.05340576,0.03814697,-0.00115967,-0.02166748,1.01879883,43.78100204,347.30194092,355.91757202,2,34528117,1487057293
18.460089,-0.15258789,0.00000000,0.04577637,-0.00109863,-0.02191162,1.01953125,43.78100204,347.30194092,355.91757202,2,34528151,1487057293
18.445114,-0.12207031,-0.03051758,0.03814697,-0.00061035,-0.02203369,1.02069092,43.78100204,347.30194092,355.91757202,2,34528180,1487057293
18.436129,-0.07629395,0.03814697,-0.01525879,-0.00238037,-0.02154541,1.02349854,49.03472137,349.06491089,340.73626709,2,34528210,1487057293
18.451103,-0.08392334,0.02288818,0.08392334,-0.00109863,-0.02166748,1.02166748,49.03472137,349.06491089,340.73626709,2,34528240,1487057293
18.439123,0.03051758,0.00000000,-0.03814697,-0.00097656,-0.02032471,1.02203369,49.03472137,349.06491089,340.73626709,2,34528269,1487057293
18.448109,-0.08392334,0.07629395,0.03814697,-0.00103760,-0.02050781,1.02239990,49.03472137,349.06491089,340.73626709,2,34528298,1487057293
18.439123,0.03814697,-0.02288818,0.01525879,0.00012207,-0.02209473,1.02246094,45.53224182,345.53900146,354.23077393,2,34528327,1487057293
18.445114,-0.17547607,-0.04577637,-0.04577637,0.00024414,-0.02056885,1.02026367,45.53224182,345.53900146,354.23077393,2,34528363,1487057293
18.439123,0.00000000,-0.03051758,-0.08392334,-0.00262451,-0.02081299,1.02026367,45.53224182,345.53900146,354.23077393,2,34528394,1487057293
18.436129,-0.09155273,0.05340576,0.04577637,-0.00054932,-0.02191162,1.02227783,45.53224182,345.53900146,354.23077393,2,34528423,1487057293
18.439123,-0.03051758,0.01525879,-0.12969971,-0.00134277,-0.02136230,1.02301025,61.29340363,354.35375977,339.04943848,2,34528452,1487057293
18.433132,-0.11444092,-0.05340576,0.01525879,-0.00189209,-0.02081299,1.01824951,61.29340363,354.35375977,339.04943848,2,34528483,1487057293
18.439123,-0.14495850,-0.04577637,0.02288818,-0.00061035,-0.02056885,1.02392578,61.29340363,354.35375977,339.04943848,2,34528514,1487057293
18.448109,0.00000000,-0.11444092,-0.04577637,-0.00085449,-0.02038574,1.02178955,61.29340363,354.35375977,339.04943848,2,34528543,1487057293
18.427143,-0.02288818,0.02288818,-0.06866455,-0.00018311,-0.02258301,1.02124023,50.78596115,364.93148804,345.79669189,2,34528572,1487057293
18.463085,0.00762939,-0.01525879,-0.06866455,-0.00012207,-0.01867676,1.02081299,50.78596115,364.93148804,345.79669189,2,34528603,1487057293
18.442118,-0.01525879,0.03814697,0.02288818,-0.00128174,-0.02154541,1.02215576,50.78596115,336.72421265,342.42306519,2,34528685,1487057293
18.454100,0.05340576,0.00000000,-0.04577637,-0.00177002,-0.02026367,1.02069092,50.78596115,336.72421265,342.42306519,2,34528715,1487057293
18.463085,-0.01525879,-0.01525879,-0.06103516,-0.00061035,-0.02178955,1.02343750,50.78596115,336.72421265,342.42306519,2,34528744,1487057293
18.445114,-0.06103516,-0.02288818,-0.03814697,-0.00054932,-0.02441406,1.01782227,50.78596115,336.72421265,342.42306519,2,34528777,1487057293
18.439123,0.06866455,-0.02288818,-0.02288818,-0.00103760,-0.01861572,1.02020264,47.28348160,354.35375977,339.04943848,2,34528808,1487057293
18.445114,0.00000000,0.10681152,0.02288818,-0.00140381,-0.02081299,1.02404785,47.28348160,354.35375977,339.04943848,2,34528838,1487057293
18.451103,-0.07629395,0.01525879,-0.00762939,-0.00048828,-0.02185059,1.02075195,47.28348160,354.35375977,339.04943848,2,34528871,1487057293
18.451103,-0.11444092,0.02288818,-0.09918213,-0.00024414,-0.02221680,1.02166748,47.28348160,354.35375977,339.04943848,2,34528901,1487057293
18.445114,-0.01525879,-0.09918213,0.01525879,0.00018311,-0.02148438,1.02148438,61.29340363,354.35375977,352.54394531,2,34528930,1487057293
18.466080,-0.04577637,0.01525879,-0.02288818,-0.00012207,-0.02130127,1.02301025,61.29340363,354.35375977,352.54394531,2,34528969,1487057293
18.448109,-0.08392334,-0.00762939,0.04577637,-0.00048828,-0.02056885,1.01904297,61.29340363,354.35375977,352.54394531,2,34528998,1487057293
18.439123,-0.03051758,0.02288818,0.03814697,0.00152588,-0.02136230,1.01953125,61.29340363,354.35375977,352.54394531,2,34529029,1487057294
18.433132,0.02288818,0.08392334,0.03814697,-0.00140381,-0.02130127,1.02075195,52.53720474,345.53900146,340.73626709,2,34529056,1487057294
18.454100,-0.03051758,-0.09918213,-0.00762939,-0.00091553,-0.02154541,1.02075195,52.53720474,345.53900146,340.73626709,2,34529086,1487057294
18.445114,-0.01525879,0.03051758,0.03051758,-0.00097656,-0.02294922,1.02142334,52.53720474,345.53900146,340.73626709,2,34529115,1487057294
18.463085,0.00762939,-0.02288818,-0.15258789,-0.00048828,-0.02105713,1.01727295,52.53720474,345.53900146,340.73626709,2,34529144,1487057294
18.445114,-0.09155273,-0.06103516,0.03814697,-0.00122070,-0.02160645,1.02239990,57.79092407,343.77603149,342.42306519,2,34529178,1487057294
18.445114,0.08392334,0.04577637,-0.07629395,0.00067139,-0.02093506,1.02185059,57.79092407,343.77603149,342.42306519,2,34529209,1487057294
18.430138,-0.08392334,0.03814697,0.00000000,-0.00122070,-0.02081299,1.02337646,57.79092407,343.77603149,342.42306519,2,34529238,1487057294
18.448109,0.02288818,-0.01525879,-0.12207031,0.00030518,-0.02044678,1.02166748,57.79092407,343.77603149,342.42306519,2,34529267,1487057294
18.436129,-0.05340576,-0.03814697,-0.01525879,-0.00231934,-0.02020264,1.02142334,57.79092407,343.77603149,342.42306519,2,34529295,1487057294
18.457094,-0.03051758,-0.06866455,0.00762939,-0.00207520,-0.02062988,1.02130127,52.53720474,359.64263916,350.85714722,2,34529324,1487057294
18.466080,-0.07629395,0.00000000,-0.00762939,-0.00079346,-0.02056885,1.02050781,52.53720474,359.64263916,350.85714722,2,34529354,1487057294
18.442118,-0.00762939,-0.07629395,-0.06103516,-0.00097656,-0.02081299,1.02325439,52.53720474,359.64263916,350.85714722,2,34529383,1487057294
18.442118,-0.03051758,-0.00762939,0.03814697,-0.00079346,-0.02124023,1.01989746,52.53720474,359.64263916,350.85714722,2,34529412,1487057294
18.445114,-0.01525879,-0.03814697,-0.06103516,-0.00134277,-0.01916504,1.02471924,49.03472137,363.16854858,350.85714722,2,34529441,1487057294
18.439123,-0.07629395,-0.01525879,-0.01525879,-0.00134277,-0.02050781,1.02154541,49.03472137,363.16854858,350.85714722,2,34529471,1487057294
18.451103,-0.13732910,-0.09155273,0.01525879,-0.00183105,-0.02020264,1.01959229,49.03472137,363.16854858,350.85714722,2,34529500,1487057294
18.442118,-0.04577637,-0.01525879,-0.03814697,-0.00122070,-0.02233887,1.01910400,49.03472137,363.16854858,350.85714722,2,34529528,1487057294
18.445114,-0.11444092,-0.06103516,-0.09918213,-0.00225830,-0.02117920,1.02044678,56.03968430,359.64263916,367.72528076,2,34529558,1487057294
18.442118,-0.05340576,0.00000000,0.00762939,-0.00048828,-0.01934814,1.02026367,56.03968430,359.64263916,367.72528076,2,34529588,1487057294
18.439123,-0.09918213,-0.04577637,-0.02288818,-0.00262451,-0.02117920,1.01995850,56.03968430,359.64263916,367.72528076,2,34529617,1487057294
18.433132,-0.07629395,0.02288818,-0.04577637,-0.00006104,-0.02081299,1.02380371,56.03968430,359.64263916,367.72528076,2,34529646,1487057294
18.433132,-0.04577637,-0.05340576,0.02288818,-0.00115967,-0.02105713,1.02148438,56.03968430,359.64263916,367.72528076,2,34529675,1487057294
18.463085,-0.08392334,0.00000000,0.00762939,-0.00268555,-0.02221680,1.02105713,61.29340363,350.82785034,355.91757202,2,34529704,1487057294
18.448109,0.05340576,-0.03814697,-0.05340576,-0.00103760,-0.02044678,1.02227783,61.29340363,350.82785034,355.91757202,2,34529734,1487057294
18.466080,-0.10681152,-0.03051758,-0.03051758,0.00054932,-0.02093506,1.02062988,61.29340363,350.82785034,355.91757202,2,34529763,1487057294
18.436129,-0.08392334,0.05340576,0.02288818,-0.00036621,-0.02130127,1.01977539,61.29340363,350.82785034,355.91757202,2,34529797,1487057294
18.430138,-0.03051758,-0.09155273,-0.01525879,-0.00115967,-0.02044678,1.02325439,64.79588318,354.35375977,349.17031860,2,34529827,1487057294
18.418158,-0.12207031,0.07629395,0.07629395,-0.00048828,-0.02014160,1.02246094,64.79588318,354.35375977,349.17031860,2,34529857,1487057294
18.427143,-0.12207031,0.06866455,-0.02288818,-0.00012207,-0.02038574,1.02221680,64.79588318,354.35375977,349.17031860,2,34529886,1487057294
18.433132,0.01525879,0.07629395,0.00000000,0.00085449,-0.02130127,1.02001953,64.79588318,354.35375977,349.17031860,2,34529916,1487057294
18.439123,-0.01525879,-0.03814697,0.06866455,-0.00012207,-0.01971436,1.02441406,38.52728271,356.11672974,340.73626709,2,34529945,1487057294
18.451103,-0.09155273,0.09918213,-0.02288818,-0.00134277,-0.02087402,1.02191162,38.52728271,356.11672974,340.73626709,2,34529975,1487057294
18.463085,-0.04577637,0.00762939,-0.03051758,-0.00091553,-0.02081299,1.01922607,38.52728271,356.11672974,340.73626709,2,34530005,1487057294
18.445114,0.03051758,0.04577637,0.00762939,-0.00115967,-0.01995850,1.02026367,38.52728271,356.11672974,340.73626709,2,34530036,1487057295
18.424147,-0.06103516,-0.05340576,-0.04577637,-0.00201416,-0.02166748,1.02087402,59.54216385,359.64263916,354.23077393,2,34530066,1487057295
18.454100,0.04577637,-0.00762939,-0.00762939,-0.00128174,-0.02014160,1.01550293,59.54216385,359.64263916,354.23077393,2,34530099,1487057295
18.448109,0.01525879,-0.06103516,-0.01525879,-0.00054932,-0.01928711,1.02056885,59.54216385,359.64263916,354.23077393,2,34530131,1487057295
18.445114,0.02288818,-0.03051758,-0.01525879,-0.00085449,-0.02172852,1.01904297,59.54216385,359.64263916,354.23077393,2,34530160,1487057295
18.442118,-0.05340576,0.04577637,-0.06103516,-0.00109863,-0.02215576,1.02258301,57.79092407,364.93148804,339.04943848,2,34530206,1487057295
18.448109,-0.03051758,-0.01525879,-0.03814697,0.00012207,-0.02136230,1.02032471,57.79092407,364.93148804,339.04943848,2,34530237,1487057295
18.454100,-0.09918213,0.01525879,-0.09155273,-0.00183105,-0.02130127,1.01965332,57.79092407,364.93148804,339.04943848,2,34530266,1487057295
18.460089,-0.05340576,-0.06103516,-0.01525879,-0.00256348,-0.02160645,1.02050781,57.79092407,364.93148804,339.04943848,2,34530295,1487057295
18.436129,-0.00762939,0.06866455,-0.01525879,-0.00061035,-0.02148438,1.02301025,56.03968430,356.11672974,350.85714722,2,34530326,1487057295
18.442118,-0.00762939,-0.00762939,-0.06103516,-0.00292969,-0.02044678,1.01959229,56.03968430,356.11672974,350.85714722,2,34530357,1487057295
18.436129,0.06866455,0.01525879,-0.01525879,0.00012207,-0.02136230,1.01892090,56.03968430,356.11672974,350.85714722,2,34530385,1487057295
18.460089,-0.04577637,0.03814697,0.00000000,0.00024414,-0.02148438,1.01892090,56.03968430,356.11672974,350.85714722,2,34530415,1487057295
18.433132,-0.05340576,-0.09155273,-0.07629395,-0.00219727,-0.02001953,1.02282715,54.28844452,343.77603149,342.42306519,2,34530483,1487057295
18.427143,-0.02288818,-0.07629395,-0.03814697,-0.00286865,-0.02172852,1.02087402,54.28844452,343.77603149,342.42306519,2,34530513,1487057295
18.415161,0.09918213,0.03814697,-0.01525879,-0.00238037,-0.02020264,1.01910400,56.03968430,349.06491089,344.10989380,2,34530548,1487057295
18.454100,-0.06103516,-0.06103516,0.00000000,0.00085449,-0.02209473,1.02276611,56.03968430,349.06491089,344.10989380,2,34530578,1487057295
18.442118,-0.01525879,-0.10681152,0.00762939,-0.00115967,-0.02197266,1.02410889,56.03968430,349.06491089,344.10989380,2,34530610,1487057295
18.430138,0.00000000,0.00762939,-0.05340576,-0.00067139,-0.02301025,1.02252197,56.03968430,349.06491089,344.10989380,2,34530639,1487057295
18.448109,-0.11444092,-0.03051758,-0.03051758,-0.00097656,-0.01879883,1.01922607,50.78596115,350.82785034,349.17031860,2,34530777,1487057295
18.439123,0.03814697,-0.02288818,-0.03814697,0.00073242,-0.02069092,1.02355957,61.29340363,354.35375977,349.17031860,2,34530807,1487057295
18.454100,0.00000000,-0.03051758,-0.01525879,-0.00109863,-0.02172852,1.02264404,61.29340363,354.35375977,349.17031860,2,34530838,1487057295
18.439123,-0.03814697,0.00762939,-0.01525879,-0.00085449,-0.02087402,1.01617432,61.29340363,354.35375977,349.17031860,2,34530869,1487057295
18.454100,-0.12207031,-0.08392334,-0.00762939,-0.00109863,-0.01953125,1.01947021,61.29340363,354.35375977,349.17031860,2,34530898,1487057295
18.451103,-0.03814697,0.01525879,-0.06866455,-0.00213623,-0.02215576,1.02471924,59.54216385,345.53900146,344.10989380,2,34530927,1487057295
18.454100,-0.15258789,0.06103516,0.07629395,-0.00286865,-0.02087402,1.02288818,59.54216385,345.53900146,344.10989380,2,34530957,1487057295
18.445114,0.00000000,-0.01525879,0.00762939,-0.00177002,-0.01861572,1.02453613,59.54216385,345.53900146,344.10989380,2,34530988,1487057295
18.457094,-0.11444092,-0.06866455,-0.06866455,-0.00195312,-0.02264404,1.02386475,59.54216385,345.53900146,344.10989380,2,34531020,1487057295
18.439123,0.00000000,-0.03814697,-0.06103516,-0.00006104,-0.02056885,1.02001953,52.53720474,352.59082031,340.73626709,2,34531051,1487057296
18.466080,-0.10681152,-0.00762939,-0.01525879,-0.00048828,-0.02093506,1.02227783,52.53720474,352.59082031,340.73626709,2,34531081,1487057296
18.448109,-0.06866455,-0.05340576,0.03051758,-0.00189209,-0.02032471,1.02124023,52.53720474,352.59082031,340.73626709,2,34531110,1487057296
18.442118,-0.04577637,-0.06103516,0.06866455,0.00030518,-0.01965332,1.01843262,52.53720474,352.59082031,340.73626709,2,34531138,1487057296
18.442118,0.02288818,-0.03814697,-0.03051758,-0.00189209,-0.02105713,1.02172852,52.53720474,352.59082031,340.73626709,2,34531167,1487057296
18.451103,0.08392334,0.06103516,0.05340576,-0.00079346,-0.02239990,1.01800537,47.28348160,347.30194092,342.42306519,2,34531194,1487057296
18.445114,-0.00762939,-0.01525879,-0.01525879,-0.00012207,-0.02215576,1.01928711,47.28348160,347.30194092,342.42306519,2,34531234,1487057296
18.445114,-0.06866455,-0.08392334,-0.01525879,-0.00109863,-0.02038574,1.02178955,47.28348160,347.30194092,342.42306519,2,34531265,1487057296
18.457094,0.00000000,-0.02288818,-0.06103516,-0.00122070,-0.02416992,1.02166748,54.28844452,361.40557861,345.79669189,2,34531309,1487057296
18.448109,-0.09155273,-0.07629395,-0.08392334,0.00158691,-0.02142334,1.02435303,54.28844452,361.40557861,345.79669189,2,34531339,1487057296
18.454100,-0.03051758,0.00000000,-0.12207031,-0.00054932,-0.02246094,1.02087402,54.28844452,361.40557861,345.79669189,2,34531368,1487057296
18.445114,-0.02288818,0.09155273,0.03814697,-0.00067139,-0.02239990,1.01983643,54.28844452,361.40557861,345.79669189,2,34531402,1487057296
18.436129,-0.05340576,-0.02288818,0.00000000,-0.00103760,-0.02215576,1.02209473,54.28844452,340.25012207,349.17031860,2,34531431,1487057296
18.451103,-0.04577637,0.02288818,-0.00762939,-0.00244141,-0.01934814,1.02142334,54.28844452,340.25012207,349.17031860,2,34531461,1487057296
18.448109,-0.06103516,0.00000000,-0.03051758,0.00134277,-0.01977539,1.02008057,54.28844452,340.25012207,349.17031860,2,34531490,1487057296
18.460089,-0.07629395,0.03814697,0.03814697,-0.00048828,-0.02227783,1.01879883,54.28844452,340.25012207,349.17031860,2,34531519,1487057296
18.451103,-0.12969971,-0.05340576,-0.06866455,-0.00183105,-0.02142334,1.01782227,66.54712677,352.59082031,340.73626709,2,34531548,1487057296
18.436129,-0.04577637,-0.03051758,0.03814697,-0.00152588,-0.01965332,1.02172852,66.54712677,352.59082031,340.73626709,2,34531578,1487057296
18.448109,0.02288818,-0.05340576,0.01525879,-0.00164795,-0.02239990,1.01989746,66.54712677,352.59082031,340.73626709,2,34531606,1487057296
18.466080,-0.06103516,-0.08392334,0.03814697,-0.00201416,-0.01892090,1.02008057,66.54712677,352.59082031,340.73626709,2,34531636,1487057296
18.445114,-0.00762939,-0.06866455,0.03814697,-0.00079346,-0.01904297,1.02520752,66.54712677,352.59082031,340.73626709,2,34531668,1487057296
18.451103,-0.08392334,-0.01525879,-0.00762939,-0.00225830,-0.02050781,1.02178955,56.03968430,352.59082031,354.23077393,2,34531697,1487057296
18.451103,-0.06866455,0.03051758,0.06866455,-0.00115967,-0.02093506,1.02136230,56.03968430,352.59082031,354.23077393,2,34531750,1487057296
18.427143,-0.05340576,0.00762939,-0.00762939,-0.00079346,-0.02136230,1.02270508,56.03968430,352.59082031,354.23077393,2,34531781,1487057296
18.466080,0.03814697,0.03814697,-0.02288818,-0.00048828,-0.01916504,1.01806641,61.29340363,350.82785034,342.42306519,2,34531821,1487057296
18.457094,0.00000000,0.01525879,-0.06103516,-0.00170898,-0.02124023,1.02117920,61.29340363,350.82785034,342.42306519,2,34531851,1487057296
18.460089,-0.00762939,-0.02288818,-0.02288818,0.00103760,-0.02001953,1.01824951,61.29340363,350.82785034,342.42306519,2,34531880,1487057296
18.427143,0.04577637,-0.12969971,0.00762939,-0.00299072,-0.02142334,1.01947021,61.29340363,350.82785034,342.42306519,2,34531909,1487057296
18.454100,-0.00762939,0.00762939,0.08392334,-0.00030518,-0.02349854,1.01757812,61.29340363,347.30194092,342.42306519,2,34532002,1487057296
18.427143,-0.16021729,-0.11444092,-0.04577637,-0.00079346,-0.02081299,1.01953125,61.29340363,347.30194092,342.42306519,2,34532032,1487057297
18.445114,-0.08392334,-0.03814697,0.01525879,-0.00073242,-0.02203369,1.02319336,47.28348160,368.45739746,342.42306519,2,34532063,1487057297
18.442118,-0.04577637,0.01525879,-0.06103516,-0.00238037,-0.02026367,1.02044678,47.28348160,368.45739746,342.42306519,2,34532093,1487057297
18.454100,-0.04577637,-0.03051758,-0.08392334,-0.00042725,-0.02117920,1.01776123,47.28348160,368.45739746,342.42306519,2,34532122,1487057297
18.430138,-0.03814697,-0.03814697,0.04577637,-0.00195312,-0.02142334,1.02209473,43.78100204,354.35375977,339.04943848,2,34532169,1487057297
18.439123,-0.02288818,0.06103516,-0.07629395,-0.00170898,-0.02166748,1.02239990,43.78100204,354.35375977,339.04943848,2,34532200,1487057297
18.457094,-0.01525879,0.03814697,0.02288818,-0.00152588,-0.02154541,1.02252197,43.78100204,354.35375977,339.04943848,2,34532272,1487057297
18.430138,0.11444092,0.11444092,-0.06103516,-0.00280762,-0.02166748,1.02166748,54.28844452,350.82785034,352.54394531,2,34532303,1487057297
18.430138,-0.03814697,-0.00762939,-0.03814697,-0.00207520,-0.02081299,1.01806641,54.28844452,350.82785034,352.54394531,2,34532333,1487057297
18.430138,-0.03051758,0.02288818,0.00000000,-0.00018311,-0.02319336,1.02105713,54.28844452,350.82785034,352.54394531,2,34532362,1487057297
18.433132,-0.04577637,0.06103516,-0.03051758,-0.00024414,-0.02209473,1.02166748,54.28844452,350.82785034,352.54394531,2,34532391,1487057297
